timestamp,accX,accY,accZ
167251037,-0.29,0.87,0.36
167252975,-0.29,0.87,0.36
167254978,-0.29,0.87,0.36
167256972,-0.29,0.86,0.37
167258971,-0.29,0.86,0.37
167260973,-0.29,0.86,0.37
167262978,-0.29,0.86,0.37
167265050,-0.29,0.86,0.37
167266977,-0.29,0.86,0.38
167268976,-0.29,0.86,0.38
167270975,-0.29,0.86,0.38
167272980,-0.29,0.86,0.38
167274982,-0.29,0.86,0.38
167277005,-0.29,0.86,0.38
167278978,-0.29,0.88,0.37
167280979,-0.29,0.88,0.37
167282974,-0.29,0.88,0.37
167284974,-0.29,0.88,0.37
167286975,-0.29,0.88,0.37
167288975,-0.29,0.87,0.36
167291048,-0.29,0.87,0.36
167292986,-0.29,0.87,0.36
167294997,-0.29,0.87,0.36
167296974,-0.29,0.87,0.36
167298978,-0.29,0.87,0.37
167357045,-0.29,0.86,0.38
167359021,-0.29,0.86,0.38
167361020,-0.29,0.87,0.37
167363021,-0.29,0.87,0.37
167365116,-0.29,0.87,0.37
167367021,-0.29,0.87,0.37
167369022,-0.29,0.87,0.37
167371023,-0.29,0.86,0.38
167373012,-0.29,0.86,0.38
167374987,-0.29,0.86,0.38
167377022,-0.29,0.86,0.38
167379000,-0.29,0.86,0.38
167380975,-0.29,0.87,0.38
167382980,-0.29,0.87,0.38
167384975,-0.29,0.87,0.38
167386979,-0.29,0.87,0.38
167388973,-0.29,0.87,0.38
167391063,-0.29,0.86,0.38
167392983,-0.29,0.86,0.38
167395021,-0.29,0.86,0.38
167397145,-0.29,0.86,0.38
167399039,-0.29,0.86,0.38
167401022,-0.29,0.87,0.37
167403022,-0.29,0.87,0.37
167405020,-0.29,0.87,0.37
167407022,-0.29,0.87,0.37
167409025,-0.29,0.87,0.37
167411051,-0.29,0.87,0.38
167413030,-0.29,0.87,0.38
167415123,-0.29,0.87,0.38
167416988,-0.29,0.87,0.38
167418985,-0.29,0.87,0.38
167420992,-0.29,0.86,0.38
167423073,-0.29,0.86,0.38
167425007,-0.29,0.86,0.38
167426978,-0.29,0.86,0.38
167428980,-0.29,0.86,0.38
167430990,-0.29,0.86,0.38
167433025,-0.29,0.87,0.38
167434975,-0.29,0.87,0.38
167436974,-0.29,0.87,0.38
167439045,-0.29,0.87,0.38
167441134,-0.29,0.87,0.38
167443019,-0.29,0.87,0.37
167445031,-0.29,0.87,0.37
167447083,-0.29,0.87,0.37
167449036,-0.29,0.87,0.37
167451019,-0.29,0.87,0.37
167453018,-0.29,0.87,0.37
167455056,-0.29,0.87,0.37
167457043,-0.29,0.87,0.37
167459003,-0.29,0.87,0.37
167460978,-0.29,0.87,0.37
167462985,-0.29,0.86,0.39
167465110,-0.29,0.86,0.39
167467056,-0.29,0.86,0.39
167469000,-0.29,0.86,0.39
167470978,-0.29,0.86,0.39
167472988,-0.29,0.86,0.38
167475025,-0.29,0.86,0.38
167477015,-0.29,0.86,0.38
167479047,-0.29,0.86,0.38
167481022,-0.29,0.86,0.38
167483018,-0.29,0.86,0.39
167485023,-0.29,0.86,0.39
167487055,-0.29,0.86,0.39
167489025,-0.29,0.86,0.39
167491130,-0.29,0.86,0.39
167493020,-0.28,0.86,0.38
167495024,-0.28,0.86,0.38
167497074,-0.28,0.86,0.38
167499006,-0.28,0.86,0.38
167500977,-0.28,0.86,0.38
167502979,-0.28,0.86,0.39
167504989,-0.28,0.86,0.39
167507020,-0.28,0.86,0.39
167508979,-0.28,0.86,0.39
167510991,-0.28,0.86,0.39
167512979,-0.28,0.86,0.39
167515069,-0.29,0.86,0.38
167516993,-0.29,0.86,0.38
167519044,-0.29,0.86,0.38
167521024,-0.29,0.86,0.38
167523021,-0.29,0.86,0.38
167525018,-0.28,0.87,0.38
167527021,-0.28,0.87,0.38
167529019,-0.28,0.87,0.38
167531023,-0.28,0.87,0.38
167532980,-0.28,0.87,0.38
167534993,-0.29,0.86,0.39
167537018,-0.29,0.86,0.39
167538979,-0.29,0.86,0.39
167541073,-0.29,0.86,0.39
167542978,-0.29,0.86,0.39
167544975,-0.29,0.86,0.39
167546975,-0.29,0.86,0.39
167548974,-0.29,0.86,0.39
167551005,-0.29,0.86,0.39
167553084,-0.29,0.86,0.39
167555003,-0.29,0.87,0.38
167556985,-0.29,0.87,0.38
167559031,-0.29,0.87,0.38
167561019,-0.29,0.87,0.38
167563018,-0.29,0.87,0.38
167565123,-0.29,0.86,0.38
167567019,-0.29,0.86,0.38
167569023,-0.29,0.86,0.38
167571053,-0.29,0.86,0.38
167573026,-0.29,0.86,0.38
167574998,-0.29,0.86,0.39
167577012,-0.29,0.86,0.39
167578981,-0.29,0.86,0.39
167580990,-0.29,0.86,0.39
167583090,-0.29,0.86,0.39
167585010,-0.29,0.86,0.39
167586998,-0.29,0.86,0.39
167588973,-0.29,0.86,0.39
167591106,-0.29,0.86,0.39
167593026,-0.29,0.86,0.39
167594994,-0.29,0.86,0.39
167596983,-0.29,0.86,0.38
167599043,-0.29,0.86,0.38
167601022,-0.29,0.86,0.38
167603022,-0.29,0.86,0.38
167605035,-0.29,0.86,0.38
167607070,-0.30,0.86,0.39
167609035,-0.30,0.86,0.39
167611018,-0.30,0.86,0.39
167613020,-0.30,0.86,0.39
167615123,-0.30,0.86,0.39
167616986,-0.29,0.86,0.38
167618979,-0.29,0.86,0.38
167620978,-0.29,0.86,0.38
167622983,-0.29,0.86,0.38
167625069,-0.29,0.86,0.38
167627012,-0.30,0.86,0.38
167628984,-0.30,0.86,0.38
167630979,-0.30,0.86,0.38
167632983,-0.30,0.86,0.38
167634983,-0.30,0.86,0.38
167636984,-0.29,0.87,0.38
167639031,-0.29,0.87,0.38
167641148,-0.29,0.87,0.38
167643022,-0.29,0.87,0.38
167645022,-0.29,0.87,0.38
167647024,-0.30,0.87,0.38
167649020,-0.30,0.87,0.38
167651010,-0.30,0.87,0.38
167652990,-0.30,0.87,0.38
167655079,-0.30,0.87,0.38
167657003,-0.26,0.86,0.43
167658975,-0.26,0.86,0.43
167660984,-0.26,0.86,0.43
167662987,-0.26,0.86,0.43
167665100,-0.26,0.86,0.43
167667024,-0.26,0.86,0.43
167668978,-0.31,0.87,0.39
167670978,-0.31,0.87,0.39
167672974,-0.31,0.87,0.39
167674977,-0.31,0.87,0.39
167677013,-0.31,0.87,0.39
167679043,-0.29,0.85,0.38
167681019,-0.29,0.85,0.38
167683017,-0.29,0.85,0.38
167685043,-0.29,0.85,0.38
167687059,-0.29,0.85,0.38
167689022,-0.29,0.85,0.40
167691130,-0.29,0.85,0.40
167693021,-0.29,0.85,0.40
167695038,-0.29,0.85,0.40
167697052,-0.29,0.85,0.40
167699005,-0.29,0.86,0.41
167700979,-0.29,0.86,0.41
167702976,-0.29,0.86,0.41
167705004,-0.29,0.86,0.41
167707028,-0.29,0.86,0.41
167708986,-0.28,0.85,0.39
167710979,-0.28,0.85,0.39
167712975,-0.28,0.85,0.39
167715070,-0.28,0.85,0.39
167716985,-0.28,0.85,0.39
167719047,-0.29,0.86,0.39
167721022,-0.29,0.86,0.39
167723023,-0.29,0.86,0.39
167725039,-0.29,0.86,0.39
167727056,-0.29,0.86,0.39
167729021,-0.29,0.86,0.39
167731020,-0.29,0.86,0.39
167733022,-0.29,0.86,0.39
167735041,-0.29,0.86,0.39
167737047,-0.29,0.86,0.39
167739030,-0.29,0.86,0.39
167741099,-0.29,0.86,0.40
167742975,-0.29,0.86,0.40
167744978,-0.29,0.86,0.40
167747031,-0.29,0.86,0.40
167749012,-0.29,0.86,0.40
167750980,-0.29,0.86,0.39
167752982,-0.29,0.86,0.39
167754974,-0.29,0.86,0.39
167756976,-0.29,0.86,0.39
167759041,-0.29,0.86,0.39
167761021,-0.29,0.86,0.40
167763020,-0.29,0.86,0.40
167765144,-0.29,0.86,0.40
167767074,-0.29,0.86,0.40
167769038,-0.29,0.86,0.40
167771019,-0.29,0.85,0.42
167773024,-0.29,0.85,0.42
167775012,-0.29,0.85,0.42
167777011,-0.29,0.85,0.42
167778973,-0.29,0.85,0.42
167780979,-0.29,0.85,0.43
167782975,-0.29,0.85,0.43
167784980,-0.29,0.85,0.43
167787004,-0.29,0.85,0.43
167789058,-0.29,0.85,0.43
167791102,-0.28,0.85,0.44
167792985,-0.28,0.85,0.44
167794996,-0.28,0.85,0.44
167797029,-0.28,0.85,0.44
167799041,-0.28,0.85,0.44
167801022,-0.28,0.86,0.44
167803018,-0.28,0.86,0.44
167805037,-0.28,0.86,0.44
167807052,-0.28,0.86,0.44
167809022,-0.28,0.86,0.44
167811022,-0.28,0.86,0.45
167813015,-0.28,0.86,0.45
167815088,-0.28,0.86,0.45
167816988,-0.28,0.86,0.45
167818979,-0.28,0.86,0.45
167820992,-0.28,0.86,0.45
167823091,-0.29,0.84,0.44
167825001,-0.29,0.84,0.44
167826979,-0.29,0.84,0.44
167828979,-0.29,0.84,0.44
167830976,-0.29,0.84,0.44
167832980,-0.28,0.86,0.45
167834980,-0.28,0.86,0.45
167837023,-0.28,0.86,0.45
167839058,-0.28,0.86,0.45
167841161,-0.28,0.86,0.45
167843038,-0.25,0.84,0.50
167845022,-0.25,0.84,0.50
167847018,-0.25,0.84,0.50
167849067,-0.25,0.84,0.50
167851027,-0.25,0.84,0.50
167853020,-0.25,0.85,0.50
167855021,-0.25,0.85,0.50
167857014,-0.25,0.85,0.50
167859058,-0.25,0.85,0.50
167860993,-0.25,0.85,0.50
167862978,-0.25,0.84,0.48
167865075,-0.25,0.84,0.48
167866983,-0.25,0.84,0.48
167868989,-0.25,0.84,0.48
167871022,-0.25,0.84,0.48
167872974,-0.27,0.80,0.46
167874974,-0.27,0.80,0.46
167877018,-0.27,0.80,0.46
167879046,-0.27,0.80,0.46
167881019,-0.27,0.80,0.46
167883020,-0.27,0.78,0.46
167885045,-0.27,0.78,0.46
167887051,-0.27,0.78,0.46
167889026,-0.27,0.78,0.46
167891128,-0.27,0.78,0.46
167893021,-0.27,0.78,0.46
167895044,-0.27,0.80,0.49
167897056,-0.27,0.80,0.49
167898979,-0.27,0.80,0.49
167900979,-0.27,0.80,0.49
167902979,-0.27,0.80,0.49
167904980,-0.27,0.84,0.49
167906982,-0.27,0.84,0.49
167908979,-0.27,0.84,0.49
167910978,-0.27,0.84,0.49
167913000,-0.27,0.84,0.49
167915123,-0.27,0.88,0.50
167916984,-0.27,0.88,0.50
167919042,-0.27,0.88,0.50
167921018,-0.27,0.88,0.50
167923021,-0.27,0.88,0.50
167925020,-0.27,0.84,0.54
167927035,-0.27,0.84,0.54
167929052,-0.27,0.84,0.54
167931025,-0.27,0.84,0.54
167933020,-0.27,0.84,0.54
167935004,-0.28,0.81,0.53
167936985,-0.28,0.81,0.53
167938984,-0.28,0.81,0.53
167941086,-0.28,0.81,0.53
167942986,-0.28,0.81,0.53
167944986,-0.29,0.81,0.50
167946984,-0.29,0.81,0.50
167948978,-0.29,0.81,0.50
167950975,-0.29,0.81,0.50
167952984,-0.29,0.81,0.50
167954987,-0.29,0.78,0.50
167956978,-0.29,0.78,0.50
167959049,-0.29,0.78,0.50
167961052,-0.29,0.78,0.50
167963021,-0.29,0.78,0.50
167965121,-0.28,0.75,0.52
167967021,-0.28,0.75,0.52
167969069,-0.28,0.75,0.52
167971038,-0.28,0.75,0.52
167973020,-0.28,0.75,0.52
167975020,-0.28,0.75,0.52
167977016,-0.26,0.78,0.55
167978978,-0.26,0.78,0.55
167980973,-0.26,0.78,0.55
167982975,-0.26,0.78,0.55
167984978,-0.26,0.78,0.55
167986979,-0.26,0.77,0.56
167988980,-0.26,0.77,0.56
167991083,-0.26,0.77,0.56
167992983,-0.26,0.77,0.56
167994997,-0.26,0.77,0.56
167997001,-0.26,0.78,0.57
167999068,-0.26,0.78,0.57
168001032,-0.26,0.78,0.57
168003020,-0.26,0.78,0.57
168005021,-0.26,0.78,0.57
168007066,-0.27,0.77,0.57
168009046,-0.27,0.77,0.57
168011018,-0.27,0.77,0.57
168013019,-0.27,0.77,0.57
168015117,-0.27,0.77,0.57
168017124,-0.27,0.75,0.56
168019007,-0.27,0.75,0.56
168020979,-0.27,0.75,0.56
168022976,-0.27,0.75,0.56
168024983,-0.27,0.75,0.56
168027022,-0.27,0.75,0.58
168028974,-0.27,0.75,0.58
168030978,-0.27,0.75,0.58
168032973,-0.27,0.75,0.58
168034984,-0.27,0.75,0.58
168036979,-0.25,0.74,0.60
168038974,-0.25,0.74,0.60
168041138,-0.25,0.74,0.60
168043022,-0.25,0.74,0.60
168045022,-0.25,0.74,0.60
168047043,-0.25,0.74,0.60
168049065,-0.25,0.73,0.61
168051034,-0.25,0.73,0.61
168053021,-0.25,0.73,0.61
168055021,-0.25,0.73,0.61
168057061,-0.25,0.73,0.61
168059030,-0.25,0.74,0.60
168061013,-0.25,0.74,0.60
168062984,-0.25,0.74,0.60
168065099,-0.25,0.74,0.60
168067057,-0.25,0.74,0.60
168069005,-0.25,0.71,0.60
168070983,-0.25,0.71,0.60
168072992,-0.25,0.71,0.60
168075027,-0.25,0.71,0.60
168077014,-0.25,0.71,0.60
168078985,-0.25,0.71,0.59
168081047,-0.25,0.71,0.59
168083019,-0.25,0.71,0.59
168085019,-0.25,0.71,0.59
168087021,-0.25,0.71,0.59
168089027,-0.25,0.74,0.59
168091155,-0.25,0.74,0.59
168093023,-0.25,0.74,0.59
168095018,-0.25,0.74,0.59
168097014,-0.25,0.74,0.59
168098982,-0.25,0.72,0.62
168100985,-0.25,0.72,0.62
168102983,-0.25,0.72,0.62
168105071,-0.25,0.72,0.62
168107016,-0.25,0.72,0.62
168108980,-0.25,0.71,0.61
168110981,-0.25,0.71,0.61
168113001,-0.25,0.71,0.61
168115126,-0.25,0.71,0.61
168116982,-0.25,0.71,0.61
168118993,-0.25,0.73,0.61
168121029,-0.25,0.73,0.61
168123016,-0.25,0.73,0.61
168125009,-0.25,0.73,0.61
168127020,-0.25,0.73,0.61
168129086,-0.25,0.73,0.61
168131035,-0.25,0.72,0.62
168133014,-0.25,0.72,0.62
168135015,-0.25,0.72,0.62
168137011,-0.25,0.72,0.62
168139047,-0.25,0.72,0.62
168141075,-0.24,0.73,0.64
168142969,-0.24,0.73,0.64
168144967,-0.24,0.73,0.64
168146966,-0.24,0.73,0.64
168149013,-0.24,0.73,0.64
168151020,-0.25,0.75,0.66
168152959,-0.25,0.75,0.66
168154958,-0.25,0.75,0.66
168156958,-0.25,0.75,0.66
168158959,-0.25,0.75,0.66
168161028,-0.25,0.72,0.65
168163015,-0.25,0.72,0.65
168165111,-0.25,0.72,0.65
168167041,-0.25,0.72,0.65
168169041,-0.25,0.72,0.65
168171014,-0.26,0.71,0.61
168173014,-0.26,0.71,0.61
168175018,-0.26,0.71,0.61
168177068,-0.26,0.71,0.61
168179007,-0.26,0.71,0.61
168181018,-0.25,0.70,0.62
168182970,-0.25,0.70,0.62
168184958,-0.25,0.70,0.62
168187037,-0.25,0.70,0.62
168188991,-0.25,0.70,0.62
168191091,-0.25,0.70,0.64
168193036,-0.25,0.70,0.64
168194991,-0.25,0.70,0.64
168196974,-0.25,0.70,0.64
168198971,-0.25,0.70,0.64
168201031,-0.25,0.70,0.64
168203013,-0.24,0.71,0.67
168205014,-0.24,0.71,0.67
168207039,-0.24,0.71,0.67
168209036,-0.24,0.71,0.67
168211014,-0.24,0.71,0.67
168213009,-0.25,0.73,0.68
168215053,-0.25,0.73,0.68
168217035,-0.25,0.73,0.68
168218992,-0.25,0.73,0.68
168220967,-0.25,0.73,0.68
168222966,-0.24,0.73,0.68
168224974,-0.24,0.73,0.68
168227015,-0.24,0.73,0.68
168228967,-0.24,0.73,0.68
168230980,-0.24,0.73,0.68
168232971,-0.25,0.68,0.66
168234969,-0.25,0.68,0.66
168236967,-0.25,0.68,0.66
168238969,-0.25,0.68,0.66
168241057,-0.25,0.68,0.66
168243011,-0.25,0.67,0.64
168245009,-0.25,0.67,0.64
168247009,-0.25,0.67,0.64
168249009,-0.25,0.67,0.64
168251013,-0.25,0.67,0.64
168253039,-0.25,0.66,0.66
168255062,-0.25,0.66,0.66
168257009,-0.25,0.66,0.66
168258968,-0.25,0.66,0.66
168260969,-0.25,0.66,0.66
168262966,-0.24,0.66,0.68
168265048,-0.24,0.66,0.68
168267001,-0.24,0.66,0.68
168268957,-0.24,0.66,0.68
168270958,-0.24,0.66,0.68
168273017,-0.25,0.67,0.67
168274967,-0.25,0.67,0.67
168276969,-0.25,0.67,0.67
168278959,-0.25,0.67,0.67
168281119,-0.25,0.67,0.67
168283017,-0.25,0.67,0.67
168285009,-0.25,0.68,0.67
168287027,-0.25,0.68,0.67
168289040,-0.25,0.68,0.67
168291044,-0.25,0.68,0.67
168293016,-0.25,0.68,0.67
168295016,-0.25,0.68,0.70
168297046,-0.25,0.68,0.70
168299016,-0.25,0.68,0.70
168300969,-0.25,0.68,0.70
168302966,-0.25,0.68,0.70
168304999,-0.24,0.67,0.69
168307040,-0.24,0.67,0.69
168308972,-0.24,0.67,0.69
168310966,-0.24,0.67,0.69
168313006,-0.24,0.67,0.69
168315046,-0.25,0.69,0.69
168316970,-0.25,0.69,0.69
168318981,-0.25,0.69,0.69
168321028,-0.25,0.69,0.69
168323013,-0.25,0.69,0.69
168325015,-0.24,0.67,0.70
168327038,-0.24,0.67,0.70
168329034,-0.24,0.67,0.70
168331009,-0.24,0.67,0.70
168333006,-0.24,0.67,0.70
168335035,-0.24,0.64,0.70
168337052,-0.24,0.64,0.70
168338998,-0.24,0.64,0.70
168341000,-0.24,0.64,0.70
168342968,-0.24,0.64,0.70
168345010,-0.24,0.67,0.70
168347006,-0.24,0.67,0.70
168348971,-0.24,0.67,0.70
168350965,-0.24,0.67,0.70
168352969,-0.24,0.67,0.70
168355005,-0.24,0.67,0.70
168356965,-0.23,0.65,0.71
168358968,-0.23,0.65,0.71
168361030,-0.23,0.65,0.71
168363015,-0.23,0.65,0.71
168365032,-0.23,0.65,0.71
168367010,-0.24,0.63,0.71
168369006,-0.24,0.63,0.71
168371042,-0.24,0.63,0.71
168373033,-0.24,0.63,0.71
168375018,-0.24,0.63,0.71
168376993,-0.23,0.63,0.73
168378974,-0.23,0.63,0.73
168381004,-0.23,0.63,0.73
168383046,-0.23,0.63,0.73
168385002,-0.23,0.63,0.73
168386958,-0.23,0.64,0.73
168388958,-0.23,0.64,0.73
168390996,-0.23,0.64,0.73
168392974,-0.23,0.64,0.73
168394986,-0.23,0.64,0.73
168396969,-0.25,0.61,0.71
168398971,-0.25,0.61,0.71
168401041,-0.25,0.61,0.71
168403042,-0.25,0.61,0.71
168405022,-0.25,0.61,0.71
168407008,-0.24,0.59,0.73
168409007,-0.24,0.59,0.73
168411015,-0.24,0.59,0.73
168413038,-0.24,0.59,0.73
168415044,-0.24,0.59,0.73
168417006,-0.23,0.63,0.75
168418966,-0.23,0.63,0.75
168420966,-0.23,0.63,0.75
168422970,-0.23,0.63,0.75
168424974,-0.23,0.63,0.75
168426968,-0.23,0.63,0.75
168428974,-0.23,0.62,0.75
168430972,-0.23,0.62,0.75
168432968,-0.23,0.62,0.75
168434965,-0.23,0.62,0.75
168436967,-0.23,0.62,0.75
168438966,-0.25,0.60,0.72
168441017,-0.25,0.60,0.72
168443010,-0.25,0.60,0.72
168445010,-0.25,0.60,0.72
168447021,-0.25,0.60,0.72
168449080,-0.25,0.59,0.72
168451035,-0.25,0.59,0.72
168453016,-0.25,0.59,0.72
168455005,-0.25,0.59,0.72
168456975,-0.25,0.59,0.72
168459015,-0.23,0.62,0.75
168460970,-0.23,0.62,0.75
168462966,-0.23,0.62,0.75
168464990,-0.23,0.62,0.75
168466980,-0.23,0.62,0.75
168469040,-0.23,0.61,0.75
168470980,-0.23,0.61,0.75
168472967,-0.23,0.61,0.75
168474966,-0.23,0.61,0.75
168477017,-0.23,0.61,0.75
168479014,-0.23,0.60,0.74
168481050,-0.23,0.60,0.74
168483024,-0.23,0.60,0.74
168485011,-0.23,0.60,0.74
168487015,-0.23,0.60,0.74
168489015,-0.23,0.61,0.74
168491038,-0.23,0.61,0.74
168493039,-0.23,0.61,0.74
168495032,-0.23,0.61,0.74
168497016,-0.23,0.61,0.74
168498969,-0.23,0.59,0.75
168500967,-0.23,0.59,0.75
168502967,-0.23,0.59,0.75
168504969,-0.23,0.59,0.75
168506967,-0.23,0.59,0.75
168509041,-0.23,0.59,0.75
168511010,-0.22,0.59,0.77
168512971,-0.22,0.59,0.77
168514958,-0.22,0.59,0.77
168516984,-0.22,0.59,0.77
168519016,-0.22,0.59,0.77
168521026,-0.23,0.60,0.76
168523011,-0.23,0.60,0.76
168525010,-0.23,0.60,0.76
168527009,-0.23,0.60,0.76
168529011,-0.23,0.60,0.76
168531008,-0.23,0.58,0.76
168533006,-0.23,0.58,0.76
168534968,-0.23,0.58,0.76
168536968,-0.23,0.58,0.76
168538970,-0.23,0.58,0.76
168540998,-0.23,0.60,0.77
168542978,-0.23,0.60,0.77
168545047,-0.23,0.60,0.77
168546994,-0.23,0.60,0.77
168548959,-0.23,0.60,0.77
168550958,-0.23,0.60,0.77
168552967,-0.23,0.60,0.77
168554959,-0.23,0.60,0.77
168556998,-0.23,0.60,0.77
168559019,-0.23,0.60,0.77
168561026,-0.23,0.57,0.76
168563015,-0.23,0.57,0.76
168565034,-0.23,0.57,0.76
168567009,-0.23,0.57,0.76
168569043,-0.23,0.57,0.76
168571039,-0.24,0.55,0.74
168573021,-0.24,0.55,0.74
168575015,-0.24,0.55,0.74
168577001,-0.24,0.55,0.74
168578971,-0.24,0.55,0.74
168581001,-0.22,0.57,0.76
168582968,-0.22,0.57,0.76
168585042,-0.22,0.57,0.76
168587012,-0.22,0.57,0.76
168588966,-0.22,0.57,0.76
168590996,-0.22,0.57,0.76
168592984,-0.23,0.59,0.77
168595024,-0.23,0.59,0.77
168596967,-0.23,0.59,0.77
168598966,-0.23,0.59,0.77
168601025,-0.23,0.59,0.77
168603014,-0.22,0.55,0.77
168605007,-0.22,0.55,0.77
168607009,-0.22,0.55,0.77
168609028,-0.22,0.55,0.77
168611027,-0.22,0.55,0.77
168613025,-0.23,0.57,0.76
168615033,-0.23,0.57,0.76
168616975,-0.23,0.57,0.76
168619001,-0.23,0.57,0.76
168621051,-0.23,0.57,0.76
168622992,-0.23,0.55,0.76
168624975,-0.23,0.55,0.76
168626970,-0.23,0.55,0.76
168628965,-0.23,0.55,0.76
168630974,-0.23,0.55,0.76
168633014,-0.23,0.55,0.76
168634968,-0.23,0.55,0.76
168636970,-0.23,0.55,0.76
168638958,-0.23,0.55,0.76
168641059,-0.23,0.55,0.76
168643012,-0.23,0.59,0.78
168645009,-0.23,0.59,0.78
168647027,-0.23,0.59,0.78
168649043,-0.23,0.59,0.78
168651020,-0.23,0.59,0.78
168653007,-0.23,0.59,0.80
168654998,-0.23,0.59,0.80
168656992,-0.23,0.59,0.80
168659030,-0.23,0.59,0.80
168661003,-0.23,0.59,0.80
168662974,-0.23,0.59,0.80
168664991,-0.24,0.59,0.79
168666969,-0.24,0.59,0.79
168668965,-0.24,0.59,0.79
168670968,-0.24,0.59,0.79
168673031,-0.24,0.59,0.79
168674985,-0.23,0.54,0.79
168676974,-0.23,0.54,0.79
168678972,-0.23,0.54,0.79
168681052,-0.23,0.54,0.79
168683026,-0.23,0.54,0.79
168685007,-0.23,0.56,0.81
168687009,-0.23,0.56,0.81
168689036,-0.23,0.56,0.81
168691053,-0.23,0.56,0.81
168693014,-0.23,0.56,0.81
168695018,-0.23,0.57,0.81
168697038,-0.23,0.57,0.81
168699018,-0.23,0.57,0.81
168700972,-0.23,0.57,0.81
168703131,-0.23,0.57,0.81
168704990,-0.24,0.56,0.81
168707019,-0.24,0.56,0.81
168708975,-0.24,0.56,0.81
168710975,-0.24,0.56,0.81
168712973,-0.24,0.56,0.81
168714998,-0.23,0.55,0.79
168716971,-0.23,0.55,0.79
168718972,-0.23,0.55,0.79
168721035,-0.23,0.55,0.79
168723016,-0.23,0.55,0.79
168725012,-0.24,0.55,0.77
168727017,-0.24,0.55,0.77
168729016,-0.24,0.55,0.77
168731085,-0.24,0.55,0.77
168733021,-0.24,0.55,0.77
168735013,-0.25,0.55,0.78
168737003,-0.25,0.55,0.78
168738985,-0.25,0.55,0.78
168741080,-0.25,0.55,0.78
168742984,-0.25,0.55,0.78
168744971,-0.25,0.55,0.78
168746981,-0.25,0.55,0.79
168749015,-0.25,0.55,0.79
168750971,-0.25,0.55,0.79
168752975,-0.25,0.55,0.79
168754975,-0.25,0.55,0.79
168756980,-0.24,0.57,0.80
168758976,-0.24,0.57,0.80
168761030,-0.24,0.57,0.80
168763040,-0.24,0.57,0.80
168765047,-0.24,0.57,0.80
168767013,-0.24,0.55,0.81
168769045,-0.24,0.55,0.81
168771037,-0.24,0.55,0.81
168773018,-0.24,0.55,0.81
168775010,-0.24,0.55,0.81
168777012,-0.24,0.53,0.80
168779035,-0.24,0.53,0.80
168781012,-0.24,0.53,0.80
168782975,-0.24,0.53,0.80
168784975,-0.24,0.53,0.80
168787022,-0.25,0.52,0.78
168789003,-0.25,0.52,0.78
168791001,-0.25,0.52,0.78
168792980,-0.25,0.52,0.78
168794986,-0.25,0.52,0.78
168796976,-0.24,0.50,0.81
168798979,-0.24,0.50,0.81
168801027,-0.24,0.50,0.81
168803012,-0.24,0.50,0.81
168805013,-0.24,0.50,0.81
168807013,-0.24,0.49,0.81
168809012,-0.24,0.49,0.81
168811015,-0.24,0.49,0.81
168813022,-0.24,0.49,0.81
168815075,-0.24,0.49,0.81
168817000,-0.24,0.49,0.81
168818976,-0.24,0.48,0.81
168820979,-0.24,0.48,0.81
168822982,-0.24,0.48,0.81
168824993,-0.24,0.48,0.81
168827017,-0.24,0.48,0.81
168828975,-0.24,0.48,0.82
168830969,-0.24,0.48,0.82
168832972,-0.24,0.48,0.82
168834976,-0.24,0.48,0.82
168836978,-0.24,0.48,0.82
168838975,-0.24,0.49,0.82
168841059,-0.24,0.49,0.82
168843013,-0.24,0.49,0.82
168845014,-0.24,0.49,0.82
168847014,-0.24,0.49,0.82
168849011,-0.24,0.51,0.83
168851049,-0.24,0.51,0.83
168853035,-0.24,0.51,0.83
168855015,-0.24,0.51,0.83
168857013,-0.24,0.51,0.83
168858979,-0.25,0.50,0.82
168860982,-0.25,0.50,0.82
168863046,-0.25,0.50,0.82
168865022,-0.25,0.50,0.82
168867005,-0.25,0.50,0.82
168868970,-0.25,0.49,0.81
168870980,-0.25,0.49,0.81
168873018,-0.25,0.49,0.81
168874971,-0.25,0.49,0.81
168876975,-0.25,0.49,0.81
168878974,-0.25,0.48,0.79
168881047,-0.25,0.48,0.79
168883029,-0.25,0.48,0.79
168885014,-0.25,0.48,0.79
168887022,-0.25,0.48,0.79
168889071,-0.25,0.46,0.79
168891054,-0.25,0.46,0.79
168893017,-0.25,0.46,0.79
168895018,-0.25,0.46,0.79
168897013,-0.25,0.46,0.79
168898975,-0.25,0.46,0.79
168900995,-0.24,0.47,0.83
168903044,-0.24,0.47,0.83
168905001,-0.24,0.47,0.83
168906987,-0.24,0.47,0.83
168908975,-0.24,0.47,0.83
168910970,-0.24,0.49,0.87
168912970,-0.24,0.49,0.87
168915096,-0.24,0.49,0.87
168917021,-0.24,0.49,0.87
168918975,-0.24,0.49,0.87
168921027,-0.24,0.50,0.87
168923014,-0.24,0.50,0.87
168925013,-0.24,0.50,0.87
168927019,-0.24,0.50,0.87
168929088,-0.24,0.50,0.87
168931022,-0.25,0.48,0.85
168933014,-0.25,0.48,0.85
168935012,-0.25,0.48,0.85
168937018,-0.25,0.48,0.85
168939047,-0.25,0.48,0.85
168941008,-0.25,0.46,0.84
168942971,-0.25,0.46,0.84
168944974,-0.25,0.46,0.84
168946984,-0.25,0.46,0.84
168949020,-0.25,0.46,0.84
168950981,-0.26,0.46,0.83
168952976,-0.26,0.46,0.83
168954979,-0.26,0.46,0.83
168956975,-0.26,0.46,0.83
168958972,-0.26,0.46,0.83
168961027,-0.25,0.47,0.83
168963016,-0.25,0.47,0.83
168965119,-0.25,0.47,0.83
168967022,-0.25,0.47,0.83
168969037,-0.25,0.47,0.83
168971016,-0.25,0.47,0.83
168973014,-0.25,0.44,0.83
168975041,-0.25,0.44,0.83
168977029,-0.25,0.44,0.83
168978977,-0.25,0.44,0.83
168981008,-0.25,0.44,0.83
168982977,-0.25,0.44,0.83
168984970,-0.25,0.44,0.83
168987036,-0.25,0.44,0.83
168988988,-0.25,0.44,0.83
168991002,-0.25,0.44,0.83
168992983,-0.26,0.47,0.82
168994990,-0.26,0.47,0.82
168996972,-0.26,0.47,0.82
168998971,-0.26,0.47,0.82
169001026,-0.26,0.47,0.82
169003017,-0.25,0.47,0.86
169005014,-0.25,0.47,0.86
169007020,-0.25,0.47,0.86
169009057,-0.25,0.47,0.86
169011024,-0.25,0.47,0.86
169013015,-0.24,0.50,0.89
169015037,-0.24,0.50,0.89
169017009,-0.24,0.50,0.89
169018975,-0.24,0.50,0.89
169021045,-0.24,0.50,0.89
169022993,-0.26,0.50,0.88
169024969,-0.26,0.50,0.88
169026975,-0.26,0.50,0.88
169028976,-0.26,0.50,0.88
169030971,-0.26,0.50,0.88
169033031,-0.27,0.49,0.84
169034995,-0.27,0.49,0.84
169036968,-0.27,0.49,0.84
169038968,-0.27,0.49,0.84
169041057,-0.27,0.49,0.84
169043016,-0.27,0.49,0.84
169045016,-0.27,0.45,0.84
169047028,-0.27,0.45,0.84
169049041,-0.27,0.45,0.84
169051020,-0.27,0.45,0.84
169053013,-0.27,0.45,0.84
169055007,-0.25,0.40,0.86
169057043,-0.25,0.40,0.86
169059016,-0.25,0.40,0.86
169060974,-0.25,0.40,0.86
169062981,-0.25,0.40,0.86
169064999,-0.23,0.38,0.86
169067034,-0.23,0.38,0.86
169069002,-0.23,0.38,0.86
169071008,-0.23,0.38,0.86
169072972,-0.23,0.38,0.86
169074984,-0.24,0.40,0.86
169076979,-0.24,0.40,0.86
169078983,-0.24,0.40,0.86
169081049,-0.24,0.40,0.86
169083031,-0.24,0.40,0.86
169085013,-0.24,0.39,0.86
169087010,-0.24,0.39,0.86
169089012,-0.24,0.39,0.86
169091034,-0.24,0.39,0.86
169093105,-0.24,0.39,0.86
169095031,-0.24,0.38,0.88
169097010,-0.24,0.38,0.88
169098972,-0.24,0.38,0.88
169100975,-0.24,0.38,0.88
169102973,-0.24,0.38,0.88
169105044,-0.24,0.35,0.88
169106983,-0.24,0.35,0.88
169109022,-0.24,0.35,0.88
169111021,-0.24,0.35,0.88
169113020,-0.24,0.35,0.88
169114992,-0.24,0.33,0.89
169116959,-0.24,0.33,0.89
169118958,-0.24,0.33,0.89
169121024,-0.24,0.33,0.89
169123014,-0.24,0.33,0.89
169125018,-0.24,0.33,0.89
169127015,-0.24,0.33,0.89
169129017,-0.24,0.33,0.89
169131007,-0.24,0.33,0.89
169133007,-0.24,0.33,0.89
169134968,-0.24,0.33,0.89
169136968,-0.24,0.33,0.89
169138967,-0.24,0.33,0.89
169140991,-0.24,0.33,0.89
169142969,-0.24,0.33,0.89
169144972,-0.24,0.33,0.89
169147058,-0.22,0.31,0.90
169149005,-0.22,0.31,0.90
169150971,-0.22,0.31,0.90
169152959,-0.22,0.31,0.90
169154959,-0.22,0.31,0.90
169156975,-0.24,0.33,0.89
169159015,-0.24,0.33,0.89
169161026,-0.24,0.33,0.89
169163016,-0.24,0.33,0.89
169165036,-0.24,0.33,0.89
169167013,-0.24,0.33,0.89
169169016,-0.24,0.33,0.89
169171037,-0.24,0.33,0.89
169173039,-0.24,0.33,0.89
169175015,-0.24,0.33,0.89
169177005,-0.24,0.29,0.88
169178968,-0.24,0.29,0.88
169181009,-0.24,0.29,0.88
169182968,-0.24,0.29,0.88
169184968,-0.24,0.29,0.88
169186958,-0.24,0.26,0.87
169188974,-0.24,0.26,0.87
169191016,-0.24,0.26,0.87
169192987,-0.24,0.26,0.87
169195133,-0.24,0.26,0.87
169196998,-0.24,0.26,0.87
169198966,-0.25,0.28,0.88
169201040,-0.25,0.28,0.88
169203033,-0.25,0.28,0.88
169205018,-0.25,0.28,0.88
169207018,-0.25,0.28,0.88
169209013,-0.24,0.31,0.93
169211031,-0.24,0.31,0.93
169213026,-0.24,0.31,0.93
169215047,-0.24,0.31,0.93
169217007,-0.24,0.31,0.93
169218967,-0.23,0.31,0.95
169221023,-0.23,0.31,0.95
169223018,-0.23,0.31,0.95
169224971,-0.23,0.31,0.95
169226970,-0.23,0.31,0.95
169228972,-0.23,0.33,0.95
169231013,-0.23,0.33,0.95
169233004,-0.23,0.33,0.95
169234970,-0.23,0.33,0.95
169236969,-0.23,0.33,0.95
169238958,-0.25,0.32,0.91
169241058,-0.25,0.32,0.91
169243011,-0.25,0.32,0.91
169245006,-0.25,0.32,0.91
169247013,-0.25,0.32,0.91
169249036,-0.25,0.31,0.88
169251018,-0.25,0.31,0.88
169253010,-0.25,0.31,0.88
169255009,-0.25,0.31,0.88
169256967,-0.25,0.31,0.88
169259001,-0.26,0.30,0.86
169261042,-0.26,0.30,0.86
169262988,-0.26,0.30,0.86
169264993,-0.26,0.30,0.86
169266973,-0.26,0.30,0.86
169268967,-0.25,0.31,0.89
169270967,-0.25,0.31,0.89
169272966,-0.25,0.31,0.89
169274988,-0.25,0.31,0.89
169277022,-0.25,0.31,0.89
169278970,-0.25,0.31,0.89
169281048,-0.26,0.32,0.90
169283025,-0.26,0.32,0.90
169285014,-0.26,0.32,0.90
169287010,-0.26,0.32,0.90
169289036,-0.26,0.32,0.90
169291047,-0.27,0.32,0.89
169293010,-0.27,0.32,0.89
169295018,-0.27,0.32,0.89
169297045,-0.27,0.32,0.89
169299015,-0.27,0.32,0.89
169300971,-0.26,0.29,0.89
169302970,-0.26,0.29,0.89
169304968,-0.26,0.29,0.89
169307019,-0.26,0.29,0.89
169308968,-0.26,0.29,0.89
169310966,-0.27,0.31,0.88
169312967,-0.27,0.31,0.88
169314959,-0.27,0.31,0.88
169316985,-0.27,0.31,0.88
169318982,-0.27,0.31,0.88
169321029,-0.27,0.31,0.89
169323017,-0.27,0.31,0.89
169325017,-0.27,0.31,0.89
169327015,-0.27,0.31,0.89
169329056,-0.27,0.31,0.89
169331018,-0.27,0.33,0.90
169333011,-0.27,0.33,0.90
169335005,-0.27,0.33,0.90
169337049,-0.27,0.33,0.90
169339012,-0.27,0.33,0.90
169340997,-0.27,0.34,0.93
169342968,-0.27,0.34,0.93
169344967,-0.27,0.34,0.93
169347031,-0.27,0.34,0.93
169348969,-0.27,0.34,0.93
169350966,-0.27,0.34,0.93
169352958,-0.27,0.32,0.92
169354959,-0.27,0.32,0.92
169356967,-0.27,0.32,0.92
169358967,-0.27,0.32,0.92
169361026,-0.27,0.32,0.92
169363012,-0.28,0.31,0.92
169365117,-0.28,0.31,0.92
169367038,-0.28,0.31,0.92
169369043,-0.28,0.31,0.92
169371017,-0.28,0.31,0.92
169373011,-0.27,0.32,0.92
169375007,-0.27,0.32,0.92
169377006,-0.27,0.32,0.92
169379018,-0.27,0.32,0.92
169381040,-0.27,0.32,0.92
169383012,-0.27,0.29,0.90
169384967,-0.27,0.29,0.90
169386966,-0.27,0.29,0.90
169388958,-0.27,0.29,0.90
169390998,-0.27,0.29,0.90
169392977,-0.27,0.29,0.89
169395019,-0.27,0.29,0.89
169396971,-0.27,0.29,0.89
169398968,-0.27,0.29,0.89
169401028,-0.27,0.29,0.89
169403015,-0.28,0.29,0.89
169405009,-0.28,0.29,0.89
169407008,-0.28,0.29,0.89
169409007,-0.28,0.29,0.89
169411023,-0.28,0.29,0.89
169413038,-0.27,0.31,0.89
169415041,-0.27,0.31,0.89
169416969,-0.27,0.31,0.89
169418972,-0.27,0.31,0.89
169420975,-0.27,0.31,0.89
169422968,-0.27,0.31,0.92
169424971,-0.27,0.31,0.92
169426968,-0.27,0.31,0.92
169428970,-0.27,0.31,0.92
169430967,-0.27,0.31,0.92
169432969,-0.27,0.31,0.92
169434972,-0.28,0.30,0.91
169436959,-0.28,0.30,0.91
169438969,-0.28,0.30,0.91
169441015,-0.28,0.30,0.91
169443016,-0.28,0.30,0.91
169445072,-0.28,0.31,0.90
169447029,-0.28,0.31,0.90
169449009,-0.28,0.31,0.90
169451010,-0.28,0.31,0.90
169453010,-0.28,0.31,0.90
169455003,-0.29,0.31,0.89
169457040,-0.29,0.31,0.89
169458986,-0.29,0.31,0.89
169460972,-0.29,0.31,0.89
169462968,-0.29,0.31,0.89
169465000,-0.29,0.32,0.89
169467021,-0.29,0.32,0.89
169468967,-0.29,0.32,0.89
169470965,-0.29,0.32,0.89
169472958,-0.29,0.32,0.89
169474959,-0.29,0.33,0.89
169476971,-0.29,0.33,0.89
169478989,-0.29,0.33,0.89
169481043,-0.29,0.33,0.89
169483048,-0.29,0.33,0.89
169485019,-0.30,0.34,0.89
169487010,-0.30,0.34,0.89
169489049,-0.30,0.34,0.89
169491065,-0.30,0.34,0.89
169493013,-0.30,0.34,0.89
169495018,-0.29,0.34,0.89
169497018,-0.29,0.34,0.89
169499039,-0.29,0.34,0.89
169501018,-0.29,0.34,0.89
169502967,-0.29,0.34,0.89
169504967,-0.29,0.34,0.89
169507023,-0.28,0.32,0.90
169509017,-0.28,0.32,0.90
169510968,-0.28,0.32,0.90
169512966,-0.28,0.32,0.90
169515047,-0.28,0.32,0.90
169516996,-0.27,0.31,0.89
169518969,-0.27,0.31,0.89
169521033,-0.27,0.31,0.89
169523011,-0.27,0.31,0.89
169525006,-0.27,0.31,0.89
169527029,-0.31,0.27,1.00
169529040,-0.31,0.27,1.00
169531015,-0.31,0.27,1.00
169533011,-0.31,0.27,1.00
169535010,-0.31,0.27,1.00
169537045,-0.17,0.27,1.13
169539007,-0.17,0.27,1.13
169540997,-0.17,0.27,1.13
169542971,-0.17,0.27,1.13
169544975,-0.17,0.27,1.13
169547014,-0.28,0.25,0.82
169548968,-0.28,0.25,0.82
169550971,-0.28,0.25,0.82
169552968,-0.28,0.25,0.82
169554967,-0.28,0.25,0.82
169556966,-0.30,0.27,0.79
169558965,-0.30,0.27,0.79
169561031,-0.30,0.27,0.79
169563009,-0.30,0.27,0.79
169565033,-0.30,0.27,0.79
169567040,-0.25,0.24,0.91
169569028,-0.25,0.24,0.91
169571019,-0.25,0.24,0.91
169573016,-0.25,0.24,0.91
169575014,-0.25,0.24,0.91
169577010,-0.27,0.27,0.88
169579038,-0.27,0.27,0.88
169580988,-0.27,0.27,0.88
169583007,-0.27,0.27,0.88
169585002,-0.27,0.27,0.88
169587010,-0.27,0.27,0.88
169589019,-0.27,0.27,0.88
169591005,-0.27,0.27,0.88
169592974,-0.27,0.27,0.88
169594991,-0.27,0.27,0.88
169596973,-0.27,0.27,0.88
169598967,-0.26,0.29,0.92
169601028,-0.26,0.29,0.92
169603014,-0.26,0.29,0.92
169605007,-0.26,0.29,0.92
169607030,-0.26,0.29,0.92
169609040,-0.25,0.30,0.91
169611018,-0.25,0.30,0.91
169613017,-0.25,0.30,0.91
169615043,-0.25,0.30,0.91
169617048,-0.25,0.30,0.91
169619013,-0.25,0.32,0.92
169620966,-0.25,0.32,0.92
169622966,-0.25,0.32,0.92
169624966,-0.25,0.32,0.92
169627018,-0.25,0.32,0.92
169628965,-0.27,0.32,0.90
169630959,-0.27,0.32,0.90
169632969,-0.27,0.32,0.90
169634969,-0.27,0.32,0.90
169636957,-0.27,0.32,0.90
169638968,-0.28,0.31,0.88
169641059,-0.28,0.31,0.88
169643012,-0.28,0.31,0.88
169645008,-0.28,0.31,0.88
169647040,-0.28,0.31,0.88
169649041,-0.26,0.27,0.89
169651014,-0.26,0.27,0.89
169653013,-0.26,0.27,0.89
169655000,-0.26,0.27,0.89
169656975,-0.26,0.27,0.89
169659004,-0.26,0.27,0.89
169661038,-0.26,0.28,0.89
169662979,-0.26,0.28,0.89
169664990,-0.26,0.28,0.89
169666971,-0.26,0.28,0.89
169669016,-0.26,0.28,0.89
169671001,-0.28,0.29,0.89
169672981,-0.28,0.29,0.89
169674973,-0.28,0.29,0.89
169676969,-0.28,0.29,0.89
169678970,-0.28,0.29,0.89
169681035,-0.27,0.26,0.89
169683033,-0.27,0.26,0.89
169685011,-0.27,0.26,0.89
169687011,-0.27,0.26,0.89
169689010,-0.27,0.26,0.89
169691044,-0.28,0.28,0.90
169693053,-0.28,0.28,0.90
169695032,-0.28,0.28,0.90
169697005,-0.28,0.28,0.90
169698967,-0.28,0.28,0.90
169700970,-0.28,0.27,0.89
169703046,-0.28,0.27,0.89
169705002,-0.28,0.27,0.89
169706967,-0.28,0.27,0.89
169708959,-0.28,0.27,0.89
169711010,-0.29,0.28,0.89
169713006,-0.29,0.28,0.89
169715063,-0.29,0.28,0.89
169716980,-0.29,0.28,0.89
169718968,-0.29,0.28,0.89
169721032,-0.28,0.28,0.92
169723011,-0.28,0.28,0.92
169725009,-0.28,0.28,0.92
169727010,-0.28,0.28,0.92
169729009,-0.28,0.28,0.92
169731010,-0.29,0.31,0.94
169733006,-0.29,0.31,0.94
169734969,-0.29,0.31,0.94
169736968,-0.29,0.31,0.94
169738985,-0.29,0.31,0.94
169740999,-0.29,0.31,0.94
169742975,-0.28,0.29,0.94
169744969,-0.28,0.29,0.94
169746975,-0.28,0.29,0.94
169749001,-0.28,0.29,0.94
169751046,-0.28,0.29,0.94
169752996,-0.30,0.28,0.93
169754967,-0.30,0.28,0.93
169756967,-0.30,0.28,0.93
169758969,-0.30,0.28,0.93
169761020,-0.30,0.28,0.93
169763011,-0.32,0.32,1.03
169765115,-0.32,0.32,1.03
169767016,-0.32,0.32,1.03
169769009,-0.32,0.32,1.03
169771017,-0.32,0.32,1.03
169773073,-0.20,0.18,1.08
169774995,-0.20,0.18,1.08
169776967,-0.20,0.18,1.08
169778970,-0.20,0.18,1.08
169780967,-0.20,0.18,1.08
169783006,-0.21,0.15,0.92
169784966,-0.21,0.15,0.92
169786976,-0.21,0.15,0.92
169789011,-0.21,0.15,0.92
169791040,-0.21,0.15,0.92
169793012,-0.30,0.29,0.83
169794987,-0.30,0.29,0.83
169796969,-0.30,0.29,0.83
169798973,-0.30,0.29,0.83
169801030,-0.30,0.29,0.83
169803011,-0.29,0.27,0.88
169805006,-0.29,0.27,0.88
169807024,-0.29,0.27,0.88
169809041,-0.29,0.27,0.88
169811022,-0.29,0.27,0.88
169813011,-0.29,0.27,0.88
169815033,-0.25,0.19,0.89
169817045,-0.25,0.19,0.89
169819014,-0.25,0.19,0.89
169820974,-0.25,0.19,0.89
169822969,-0.25,0.19,0.89
169824986,-0.25,0.18,0.88
169827019,-0.25,0.18,0.88
169828966,-0.25,0.18,0.88
169830959,-0.25,0.18,0.88
169832959,-0.25,0.18,0.88
169834965,-0.26,0.16,0.85
169836968,-0.26,0.16,0.85
169838968,-0.26,0.16,0.85
169841051,-0.26,0.16,0.85
169843014,-0.26,0.16,0.85
169845018,-0.27,0.19,0.84
169847036,-0.27,0.19,0.84
169849045,-0.27,0.19,0.84
169851016,-0.27,0.19,0.84
169853008,-0.27,0.19,0.84
169855009,-0.28,0.21,0.84
169857121,-0.28,0.21,0.84
169859004,-0.28,0.21,0.84
169860970,-0.28,0.21,0.84
169862959,-0.28,0.21,0.84
169864993,-0.27,0.20,0.89
169867015,-0.27,0.20,0.89
169868967,-0.27,0.20,0.89
169870970,-0.27,0.20,0.89
169872959,-0.27,0.20,0.89
169874966,-0.27,0.20,0.93
169876970,-0.27,0.20,0.93
169878968,-0.27,0.20,0.93
169881032,-0.27,0.20,0.93
169883030,-0.27,0.20,0.93
169885010,-0.27,0.20,0.97
169887009,-0.27,0.20,0.97
169889015,-0.27,0.20,0.97
169891058,-0.27,0.20,0.97
169893044,-0.27,0.20,0.97
169895017,-0.27,0.20,0.97
169897006,-0.27,0.23,0.98
169898969,-0.27,0.23,0.98
169900969,-0.27,0.23,0.98
169902970,-0.27,0.23,0.98
169905000,-0.27,0.23,0.98
169907039,-0.27,0.25,1.01
169908988,-0.27,0.25,1.01
169910970,-0.27,0.25,1.01
169912982,-0.27,0.25,1.01
169915051,-0.27,0.25,1.01
169916974,-0.28,0.25,0.99
169918970,-0.28,0.25,0.99
169921029,-0.28,0.25,0.99
169923011,-0.28,0.25,0.99
169925009,-0.28,0.25,0.99
169927033,-0.29,0.25,0.95
169929048,-0.29,0.25,0.95
169931018,-0.29,0.25,0.95
169933013,-0.29,0.25,0.95
169935017,-0.29,0.25,0.95
169937051,-0.29,0.26,0.94
169939000,-0.29,0.26,0.94
169940995,-0.29,0.26,0.94
169942965,-0.29,0.26,0.94
169944965,-0.29,0.26,0.94
169946967,-0.30,0.26,0.93
169948971,-0.30,0.26,0.93
169951020,-0.30,0.26,0.93
169952966,-0.30,0.26,0.93
169954959,-0.30,0.26,0.93
169956966,-0.37,0.32,0.80
169958968,-0.37,0.32,0.80
169961030,-0.37,0.32,0.80
169963015,-0.37,0.32,0.80
169965039,-0.37,0.32,0.80
169967036,-0.37,0.32,0.80
169969028,-0.36,0.29,0.80
169971021,-0.36,0.29,0.80
169973012,-0.36,0.29,0.80
169975005,-0.36,0.29,0.80
169977046,-0.36,0.29,0.80
169979000,-0.27,0.24,0.90
169980968,-0.27,0.24,0.90
169983002,-0.27,0.24,0.90
169984969,-0.27,0.24,0.90
169986990,-0.27,0.24,0.90
169989021,-0.30,0.25,0.88
169991012,-0.30,0.25,0.88
169993010,-0.30,0.25,0.88
169994992,-0.30,0.25,0.88
169996967,-0.30,0.25,0.88
169998966,-0.29,0.23,0.89
170001028,-0.29,0.23,0.89
170003013,-0.29,0.23,0.89
170005008,-0.29,0.23,0.89
170007007,-0.29,0.23,0.89
170009013,-0.29,0.23,0.91
170011033,-0.29,0.23,0.91
170013137,-0.29,0.23,0.91
170015053,-0.29,0.23,0.91
170017007,-0.29,0.23,0.91
170018972,-0.29,0.24,0.94
170020969,-0.29,0.24,0.94
170022967,-0.29,0.24,0.94
170024967,-0.29,0.24,0.94
170026966,-0.29,0.24,0.94
170028966,-0.29,0.29,0.95
170030973,-0.29,0.29,0.95
170032974,-0.29,0.29,0.95
170034972,-0.29,0.29,0.95
170036967,-0.29,0.29,0.95
170038967,-0.29,0.29,0.95
170041015,-0.31,0.31,0.96
170043016,-0.31,0.31,0.96
170045049,-0.31,0.31,0.96
170047020,-0.31,0.31,0.96
170049008,-0.31,0.31,0.96
170051012,-0.33,0.30,0.95
170053018,-0.33,0.30,0.95
170055042,-0.33,0.30,0.95
170057013,-0.33,0.30,0.95
170058969,-0.33,0.30,0.95
170060967,-0.32,0.29,0.91
170063027,-0.32,0.29,0.91
170065044,-0.32,0.29,0.91
170066974,-0.32,0.29,0.91
170068968,-0.32,0.29,0.91
170070991,-0.31,0.27,0.91
170073023,-0.31,0.27,0.91
170074982,-0.31,0.27,0.91
170076970,-0.31,0.27,0.91
170078966,-0.31,0.27,0.91
170081032,-0.31,0.26,0.87
170083031,-0.31,0.26,0.87
170085009,-0.31,0.26,0.87
170087025,-0.31,0.26,0.87
170089040,-0.31,0.26,0.87
170091043,-0.32,0.27,0.87
170093012,-0.32,0.27,0.87
170095028,-0.32,0.27,0.87
170097028,-0.32,0.27,0.87
170099077,-0.32,0.27,0.87
170101000,-0.31,0.25,0.87
170102969,-0.31,0.25,0.87
170104965,-0.31,0.25,0.87
170106974,-0.31,0.25,0.87
170109014,-0.31,0.25,0.87
170110966,-0.30,0.25,0.89
170112970,-0.30,0.25,0.89
170115065,-0.30,0.25,0.89
170116970,-0.30,0.25,0.89
170118966,-0.30,0.25,0.89
170121034,-0.30,0.25,0.89
170123012,-0.30,0.27,0.89
170125008,-0.30,0.27,0.89
170127036,-0.30,0.27,0.89
170129040,-0.30,0.27,0.89
170131018,-0.30,0.27,0.89
170133014,-0.29,0.27,0.88
170135011,-0.29,0.27,0.88
170137038,-0.29,0.27,0.88
170139009,-0.29,0.27,0.88
170140996,-0.29,0.27,0.88
170142976,-0.30,0.23,0.87
170144969,-0.30,0.23,0.87
170147016,-0.30,0.23,0.87
170148969,-0.30,0.23,0.87
170150959,-0.30,0.23,0.87
170152967,-0.30,0.24,0.86
170154958,-0.30,0.24,0.86
170156967,-0.30,0.24,0.86
170158969,-0.30,0.24,0.86
170161037,-0.30,0.24,0.86
170163012,-0.30,0.25,0.89
170165123,-0.30,0.25,0.89
170167044,-0.30,0.25,0.89
170169037,-0.30,0.25,0.89
170171028,-0.30,0.25,0.89
170173011,-0.30,0.27,0.91
170175007,-0.30,0.27,0.91
170177077,-0.30,0.27,0.91
170179021,-0.30,0.27,0.91
170180978,-0.30,0.27,0.91
170183006,-0.34,0.34,0.91
170185012,-0.34,0.34,0.91
170187023,-0.34,0.34,0.91
170188997,-0.34,0.34,0.91
170191013,-0.34,0.34,0.91
170192985,-0.34,0.34,0.91
170195022,-0.33,0.33,0.91
170196968,-0.33,0.33,0.91
170198971,-0.33,0.33,0.91
170201028,-0.33,0.33,0.91
170203015,-0.33,0.33,0.91
170205007,-0.32,0.30,0.92
170207015,-0.32,0.30,0.92
170209036,-0.32,0.30,0.92
170211018,-0.32,0.30,0.92
170213011,-0.32,0.30,0.92
170215034,-0.32,0.30,0.90
170216972,-0.32,0.30,0.90
170218974,-0.32,0.30,0.90
170221046,-0.32,0.30,0.90
170222998,-0.32,0.30,0.90
170224958,-0.31,0.28,0.90
170226957,-0.31,0.28,0.90
170228958,-0.31,0.28,0.90
170230968,-0.31,0.28,0.90
170232958,-0.31,0.28,0.90
170234958,-0.31,0.28,0.88
170236958,-0.31,0.28,0.88
170238957,-0.31,0.28,0.88
170241075,-0.31,0.28,0.88
170243030,-0.31,0.28,0.88
170245010,-0.32,0.29,0.88
170247010,-0.32,0.29,0.88
170249031,-0.32,0.29,0.88
170251030,-0.32,0.29,0.88
170253011,-0.32,0.29,0.88
170255011,-0.32,0.30,0.87
170257008,-0.32,0.30,0.87
170258967,-0.32,0.30,0.87
170260968,-0.32,0.30,0.87
170262997,-0.32,0.30,0.87
170265052,-0.31,0.29,0.88
170266976,-0.31,0.29,0.88
170268969,-0.31,0.29,0.88
170270959,-0.31,0.29,0.88
170272967,-0.31,0.29,0.88
170275019,-0.31,0.29,0.88
170276969,-0.31,0.29,0.88
170278966,-0.31,0.29,0.88
170281035,-0.31,0.29,0.88
170283030,-0.31,0.29,0.88
170285009,-0.31,0.29,0.88
170287030,-0.32,0.30,0.88
170289042,-0.32,0.30,0.88
170291038,-0.32,0.30,0.88
170293021,-0.32,0.30,0.88
170295023,-0.32,0.30,0.88
170297014,-0.32,0.31,0.88
170299015,-0.32,0.31,0.88
170301042,-0.32,0.31,0.88
170303009,-0.32,0.31,0.88
170304968,-0.32,0.31,0.88
170306958,-0.32,0.33,0.88
170308959,-0.32,0.33,0.88
170310966,-0.32,0.33,0.88
170312996,-0.32,0.33,0.88
170315042,-0.32,0.33,0.88
170316971,-0.31,0.30,0.88
170318985,-0.31,0.30,0.88
170321032,-0.31,0.30,0.88
170323020,-0.31,0.30,0.88
170325021,-0.31,0.30,0.88
170327023,-0.31,0.29,0.87
170329066,-0.31,0.29,0.87
170331026,-0.31,0.29,0.87
170333018,-0.31,0.29,0.87
170335014,-0.31,0.29,0.87
170337006,-0.30,0.29,0.87
170338968,-0.30,0.29,0.87
170341000,-0.30,0.29,0.87
170342975,-0.30,0.29,0.87
170344968,-0.30,0.29,0.87
170346967,-0.30,0.29,0.87
170348967,-0.30,0.29,0.88
170350970,-0.30,0.29,0.88
170352967,-0.30,0.29,0.88
170354966,-0.30,0.29,0.88
170357068,-0.30,0.29,0.88
170358995,-0.30,0.30,0.86
170361020,-0.30,0.30,0.86
170363009,-0.30,0.30,0.86
170365048,-0.30,0.30,0.86
170367034,-0.30,0.30,0.86
170369025,-0.33,0.31,0.88
170371011,-0.33,0.31,0.88
170373007,-0.33,0.31,0.88
170375001,-0.33,0.31,0.88
170377039,-0.33,0.31,0.88
170378988,-0.32,0.27,0.87
170380971,-0.32,0.27,0.87
170383007,-0.32,0.27,0.87
170384978,-0.32,0.27,0.87
170387018,-0.32,0.27,0.87
170388969,-0.31,0.25,0.86
170390996,-0.31,0.25,0.86
170392972,-0.31,0.25,0.86
170394989,-0.31,0.25,0.86
170396967,-0.31,0.25,0.86
170398969,-0.31,0.27,0.89
170401036,-0.31,0.27,0.89
170403035,-0.31,0.27,0.89
170405009,-0.31,0.27,0.89
170407011,-0.31,0.27,0.89
170409012,-0.30,0.25,0.89
170411071,-0.30,0.25,0.89
170413026,-0.30,0.25,0.89
170415032,-0.30,0.25,0.89
170417007,-0.30,0.25,0.89
170419003,-0.30,0.26,0.90
170421041,-0.30,0.26,0.90
170422985,-0.30,0.26,0.90
170424969,-0.30,0.26,0.90
170426969,-0.30,0.26,0.90
170428987,-0.30,0.26,0.90
170431013,-0.31,0.25,0.89
170432967,-0.31,0.25,0.89
170434958,-0.31,0.25,0.89
170436958,-0.31,0.25,0.89
170438958,-0.31,0.25,0.89
170441060,-0.32,0.24,0.89
170443014,-0.32,0.24,0.89
170445010,-0.32,0.24,0.89
170447010,-0.32,0.24,0.89
170449039,-0.32,0.24,0.89
170451032,-0.31,0.23,0.89
170453019,-0.31,0.23,0.89
170455011,-0.31,0.23,0.89
170456979,-0.31,0.23,0.89
170458971,-0.31,0.23,0.89
170461025,-0.31,0.23,0.90
170463017,-0.31,0.23,0.90
170464992,-0.31,0.23,0.90
170466971,-0.31,0.23,0.90
170468968,-0.31,0.23,0.90
170470966,-0.29,0.22,0.91
170472979,-0.29,0.22,0.91
170475018,-0.29,0.22,0.91
170476967,-0.29,0.22,0.91
170478968,-0.29,0.22,0.91
170481033,-0.32,0.23,0.91
170483030,-0.32,0.23,0.91
170485010,-0.32,0.23,0.91
170487015,-0.32,0.23,0.91
170489033,-0.32,0.23,0.91
170491049,-0.34,0.23,0.92
170493012,-0.34,0.23,0.92
170495017,-0.34,0.23,0.92
170497008,-0.34,0.23,0.92
170498973,-0.34,0.23,0.92
170501053,-0.34,0.23,0.92
170502998,-0.27,0.24,0.93
170504969,-0.27,0.24,0.93
170506979,-0.27,0.24,0.93
170509005,-0.27,0.24,0.93
170510958,-0.27,0.24,0.93
170512976,-0.30,0.22,0.90
170515125,-0.30,0.22,0.90
170516978,-0.30,0.22,0.90
170518968,-0.30,0.22,0.90
170521032,-0.30,0.22,0.90
170523014,-0.30,0.21,0.90
170525014,-0.30,0.21,0.90
170527011,-0.30,0.21,0.90
170529016,-0.30,0.21,0.90
170531067,-0.30,0.21,0.90
170533022,-0.29,0.22,0.93
170535006,-0.29,0.22,0.93
170536973,-0.29,0.22,0.93
170538971,-0.29,0.22,0.93
170541070,-0.29,0.22,0.93
170543000,-0.32,0.19,0.91
170544966,-0.32,0.19,0.91
170546958,-0.32,0.19,0.91
170548973,-0.32,0.19,0.91
170550966,-0.32,0.19,0.91
170553029,-0.32,0.18,0.91
170554997,-0.32,0.18,0.91
170556970,-0.32,0.18,0.91
170558972,-0.32,0.18,0.91
170561032,-0.32,0.18,0.91
170563012,-0.30,0.18,0.91
170565113,-0.30,0.18,0.91
170567032,-0.30,0.18,0.91
170569035,-0.30,0.18,0.91
170571028,-0.30,0.18,0.91
170573011,-0.26,0.20,0.89
170575013,-0.26,0.20,0.89
170577003,-0.26,0.20,0.89
170579061,-0.26,0.20,0.89
170580995,-0.26,0.20,0.89
170582999,-0.26,0.20,0.89
170584972,-0.30,0.18,0.95
170586996,-0.30,0.18,0.95
170589018,-0.30,0.18,0.95
170591007,-0.30,0.18,0.95
170592971,-0.30,0.18,0.95
170594986,-0.34,0.16,0.93
170596967,-0.34,0.16,0.93
170598966,-0.34,0.16,0.93
170601032,-0.34,0.16,0.93
170603013,-0.34,0.16,0.93
170605015,-0.34,0.12,0.94
170607033,-0.34,0.12,0.94
170609010,-0.34,0.12,0.94
170611012,-0.34,0.12,0.94
170613073,-0.34,0.12,0.94
170615045,-0.36,0.11,0.93
170617006,-0.36,0.11,0.93
170618968,-0.36,0.11,0.93
170620967,-0.36,0.11,0.93
170622970,-0.36,0.11,0.93
170624969,-0.34,0.09,0.91
170626971,-0.34,0.09,0.91
170628971,-0.34,0.09,0.91
170630967,-0.34,0.09,0.91
170632969,-0.34,0.09,0.91
170634968,-0.34,0.10,0.90
170636959,-0.34,0.10,0.90
170638966,-0.34,0.10,0.90
170641026,-0.34,0.10,0.90
170643022,-0.34,0.10,0.90
170645053,-0.33,0.13,0.91
170647033,-0.33,0.13,0.91
170649007,-0.33,0.13,0.91
170651009,-0.33,0.13,0.91
170653027,-0.33,0.13,0.91
170655025,-0.33,0.13,0.91
170657016,-0.33,0.12,0.93
170658968,-0.33,0.12,0.93
170660967,-0.33,0.12,0.93
170662976,-0.33,0.12,0.93
170665052,-0.33,0.12,0.93
170666973,-0.32,0.11,0.93
170668966,-0.32,0.11,0.93
170670983,-0.32,0.11,0.93
170673019,-0.32,0.11,0.93
170674966,-0.32,0.11,0.93
170676958,-0.34,0.12,0.95
170678958,-0.34,0.12,0.95
170681030,-0.34,0.12,0.95
170683037,-0.34,0.12,0.95
170685008,-0.34,0.12,0.95
170687009,-0.33,0.12,0.94
170689036,-0.33,0.12,0.94
170691051,-0.33,0.12,0.94
170693011,-0.33,0.12,0.94
170695017,-0.33,0.12,0.94
170697043,-0.36,0.12,0.95
170699018,-0.36,0.12,0.95
170700969,-0.36,0.12,0.95
170703130,-0.36,0.12,0.95
170705004,-0.36,0.12,0.95
170706971,-0.32,0.12,0.93
170709021,-0.32,0.12,0.93
170711021,-0.32,0.12,0.93
170712972,-0.32,0.12,0.93
170715004,-0.32,0.12,0.93
170716972,-0.32,0.12,0.92
170718968,-0.32,0.12,0.92
170721026,-0.32,0.12,0.92
170723021,-0.32,0.12,0.92
170725015,-0.32,0.12,0.92
170727046,-0.30,0.11,0.89
170729046,-0.30,0.11,0.89
170731020,-0.30,0.11,0.89
170733014,-0.30,0.11,0.89
170735012,-0.30,0.11,0.89
170737037,-0.30,0.11,0.89
170739020,-0.36,0.11,0.93
170741004,-0.36,0.11,0.93
170742971,-0.36,0.11,0.93
170745039,-0.36,0.11,0.93
170747015,-0.36,0.11,0.93
170748979,-0.34,0.12,0.93
170750974,-0.34,0.12,0.93
170753034,-0.34,0.12,0.93
170754998,-0.34,0.12,0.93
170756971,-0.34,0.12,0.93
170758975,-0.32,0.11,0.95
170761029,-0.32,0.11,0.95
170763012,-0.32,0.11,0.95
170765037,-0.32,0.11,0.95
170767029,-0.32,0.11,0.95
170769038,-0.30,0.12,0.91
170771020,-0.30,0.12,0.91
170773013,-0.30,0.12,0.91
170775011,-0.30,0.12,0.91
170777045,-0.30,0.12,0.91
170779008,-0.32,0.11,0.92
170780979,-0.32,0.11,0.92
170783011,-0.32,0.11,0.92
170784976,-0.32,0.11,0.92
170787022,-0.32,0.11,0.92
170788976,-0.32,0.09,0.89
170791001,-0.32,0.09,0.89
170792975,-0.32,0.09,0.89
170794986,-0.32,0.09,0.89
170796973,-0.32,0.09,0.89
170798976,-0.33,0.07,0.92
170801032,-0.33,0.07,0.92
170803014,-0.33,0.07,0.92
170805014,-0.33,0.07,0.92
170807020,-0.33,0.07,0.92
170809048,-0.33,0.07,0.92
170811052,-0.34,0.09,0.93
170813026,-0.34,0.09,0.93
170815039,-0.34,0.09,0.93
170817012,-0.34,0.09,0.93
170818979,-0.34,0.09,0.93
170820973,-0.33,0.07,0.91
170822984,-0.33,0.07,0.91
170824988,-0.33,0.07,0.91
170826974,-0.33,0.07,0.91
170828974,-0.33,0.07,0.91
170831086,-0.31,0.07,0.93
170833002,-0.31,0.07,0.93
170834969,-0.31,0.07,0.93
170836970,-0.31,0.07,0.93
170839019,-0.31,0.07,0.93
170841134,-0.30,0.05,0.90
170843019,-0.30,0.05,0.90
170845012,-0.30,0.05,0.90
170847030,-0.30,0.05,0.90
170849039,-0.30,0.05,0.90
170851024,-0.32,0.06,0.92
170853020,-0.32,0.06,0.92
170855014,-0.32,0.06,0.92
170857007,-0.32,0.06,0.92
170858972,-0.32,0.06,0.92
170860980,-0.32,0.05,0.92
170863052,-0.32,0.05,0.92
170865026,-0.32,0.05,0.92
170866976,-0.32,0.05,0.92
170868968,-0.32,0.05,0.92
170870988,-0.33,0.05,0.93
170873015,-0.33,0.05,0.93
170874970,-0.33,0.05,0.93
170876969,-0.33,0.05,0.93
170878969,-0.33,0.05,0.93
170881035,-0.34,0.06,0.93
170883031,-0.34,0.06,0.93
170885013,-0.34,0.06,0.93
170887039,-0.34,0.06,0.93
170889043,-0.34,0.06,0.93
170891048,-0.34,0.06,0.93
170893014,-0.34,0.04,0.92
170895035,-0.34,0.04,0.92
170897036,-0.34,0.04,0.92
170899024,-0.34,0.04,0.92
170901002,-0.34,0.04,0.92
170902974,-0.30,0.30,1.20
170904970,-0.30,0.30,1.20
170907002,-0.30,0.30,1.20
170909001,-0.30,0.30,1.20
170910969,-0.30,0.30,1.20
170912978,-0.39,-0.02,0.96
170915058,-0.39,-0.02,0.96
170917017,-0.39,-0.02,0.96
170918979,-0.39,-0.02,0.96
170921018,-0.39,-0.02,0.96
170923012,-0.36,-0.04,0.86
170925035,-0.36,-0.04,0.86
170927021,-0.36,-0.04,0.86
170929009,-0.36,-0.04,0.86
170931011,-0.36,-0.04,0.86
170933009,-0.34,0.00,0.89
170934996,-0.34,0.00,0.89
170936974,-0.34,0.00,0.89
170938967,-0.34,0.00,0.89
170941003,-0.34,0.00,0.89
170942972,-0.33,0.00,0.92
170944969,-0.33,0.00,0.92
170947095,-0.33,0.00,0.92
170948999,-0.33,0.00,0.92
170950972,-0.33,0.00,0.92
170952967,-0.34,0.00,0.92
170954959,-0.34,0.00,0.92
170956966,-0.34,0.00,0.92
170958969,-0.34,0.00,0.92
170961041,-0.34,0.00,0.92
170963032,-0.34,0.00,0.92
170965036,-0.39,-0.06,0.86
170967009,-0.39,-0.06,0.86
170969010,-0.39,-0.06,0.86
170971015,-0.39,-0.06,0.86
170973039,-0.39,-0.06,0.86
170975023,-0.38,-0.02,0.91
170977008,-0.38,-0.02,0.91
170978967,-0.38,-0.02,0.91
170980967,-0.38,-0.02,0.91
170983012,-0.38,-0.02,0.91
170984976,-0.37,-0.02,0.89
170986959,-0.37,-0.02,0.89
170988958,-0.37,-0.02,0.89
170990997,-0.37,-0.02,0.89
170992970,-0.37,-0.02,0.89
170994995,-0.37,-0.02,0.89
170997091,-0.37,-0.02,0.89
170998996,-0.37,-0.02,0.89
171001018,-0.37,-0.02,0.89
171003007,-0.37,-0.02,0.89
171005010,-0.40,-0.01,0.93
171007009,-0.40,-0.01,0.93
171009009,-0.40,-0.01,0.93
171011006,-0.40,-0.01,0.93
171012969,-0.40,-0.01,0.93
171015000,-0.43,-0.01,0.93
171017030,-0.43,-0.01,0.93
171019019,-0.43,-0.01,0.93
171020967,-0.43,-0.01,0.93
171022974,-0.43,-0.01,0.93
171024970,-0.43,-0.02,0.93
171026970,-0.43,-0.02,0.93
171028967,-0.43,-0.02,0.93
171030969,-0.43,-0.02,0.93
171032982,-0.43,-0.02,0.93
171035018,-0.43,-0.02,0.93
171036975,-0.39,-0.03,0.93
171038969,-0.39,-0.03,0.93
171041054,-0.39,-0.03,0.93
171043012,-0.39,-0.03,0.93
171045009,-0.39,-0.03,0.93
171047024,-0.39,-0.02,0.93
171049039,-0.39,-0.02,0.93
171051017,-0.39,-0.02,0.93
171053009,-0.39,-0.02,0.93
171055007,-0.39,-0.02,0.93
171057034,-0.40,-0.04,0.89
171059014,-0.40,-0.04,0.89
171060969,-0.40,-0.04,0.89
171062972,-0.40,-0.04,0.89
171064959,-0.40,-0.04,0.89
171067024,-0.42,-0.09,0.87
171068998,-0.42,-0.09,0.87
171070968,-0.42,-0.09,0.87
171072969,-0.42,-0.09,0.87
171074968,-0.42,-0.09,0.87
171076959,-0.43,-0.09,0.86
171078958,-0.43,-0.09,0.86
171081030,-0.43,-0.09,0.86
171083027,-0.43,-0.09,0.86
171085012,-0.43,-0.09,0.86
171087038,-0.44,-0.11,0.84
171089034,-0.44,-0.11,0.84
171091046,-0.44,-0.11,0.84
171093013,-0.44,-0.11,0.84
171095015,-0.44,-0.11,0.84
171097010,-0.45,-0.11,0.85
171098975,-0.45,-0.11,0.85
171100968,-0.45,-0.11,0.85
171103030,-0.45,-0.11,0.85
171105018,-0.45,-0.11,0.85
171106969,-0.43,-0.12,0.86
171108972,-0.43,-0.12,0.86
171110970,-0.43,-0.12,0.86
171112971,-0.43,-0.12,0.86
171115059,-0.43,-0.12,0.86
171117001,-0.43,-0.12,0.86
171119008,-0.42,-0.11,0.84
171121027,-0.42,-0.11,0.84
171123012,-0.42,-0.11,0.84
171125008,-0.42,-0.11,0.84
171127024,-0.42,-0.11,0.84
171129037,-0.43,-0.11,0.85
171131018,-0.43,-0.11,0.85
171133011,-0.43,-0.11,0.85
171135006,-0.43,-0.11,0.85
171137043,-0.43,-0.11,0.85
171139013,-0.41,-0.11,0.84
171140998,-0.41,-0.11,0.84
171142970,-0.41,-0.11,0.84
171144959,-0.41,-0.11,0.84
171146958,-0.41,-0.11,0.84
171148966,-0.41,-0.12,0.85
171150959,-0.41,-0.12,0.85
171152959,-0.41,-0.12,0.85
171154959,-0.41,-0.12,0.85
171156967,-0.41,-0.12,0.85
171158958,-0.43,-0.12,0.86
171161021,-0.43,-0.12,0.86
171163038,-0.43,-0.12,0.86
171165051,-0.43,-0.12,0.86
171167018,-0.43,-0.12,0.86
171169011,-0.41,-0.14,0.86
171171013,-0.41,-0.14,0.86
171173009,-0.41,-0.14,0.86
171175006,-0.41,-0.14,0.86
171176969,-0.41,-0.14,0.86
171178968,-0.45,-0.14,0.86
171180987,-0.45,-0.14,0.86
171183009,-0.45,-0.14,0.86
171184971,-0.45,-0.14,0.86
171187026,-0.45,-0.14,0.86
171189019,-0.45,-0.14,0.86
171191013,-0.46,-0.14,0.87
171192974,-0.46,-0.14,0.87
171194985,-0.46,-0.14,0.87
171197000,-0.46,-0.14,0.87
171199017,-0.46,-0.14,0.87
171201029,-0.46,-0.14,0.85
171203013,-0.46,-0.14,0.85
171205008,-0.46,-0.14,0.85
171207008,-0.46,-0.14,0.85
171209026,-0.46,-0.14,0.85
171211079,-0.45,-0.13,0.84
171213022,-0.45,-0.13,0.84
171215034,-0.45,-0.13,0.84
171216969,-0.45,-0.13,0.84
171218967,-0.45,-0.13,0.84
171220972,-0.45,-0.14,0.83
171222971,-0.45,-0.14,0.83
171225009,-0.45,-0.14,0.83
171227019,-0.45,-0.14,0.83
171229020,-0.45,-0.14,0.83
171230971,-0.46,-0.13,0.82
171232970,-0.46,-0.13,0.82
171234972,-0.46,-0.13,0.82
171236968,-0.46,-0.13,0.82
171238966,-0.46,-0.13,0.82
171241047,-0.46,-0.14,0.83
171243010,-0.46,-0.14,0.83
171245003,-0.46,-0.14,0.83
171247008,-0.46,-0.14,0.83
171249011,-0.46,-0.14,0.83
171251004,-0.46,-0.14,0.84
171252977,-0.46,-0.14,0.84
171255062,-0.46,-0.14,0.84
171256996,-0.46,-0.14,0.84
171258970,-0.46,-0.14,0.84
171260957,-0.46,-0.14,0.84
171262959,-0.48,-0.14,0.85
171265024,-0.48,-0.14,0.85
171267016,-0.48,-0.14,0.85
171268974,-0.48,-0.14,0.85
171270967,-0.48,-0.14,0.85
171272958,-0.50,-0.16,0.84
171274958,-0.50,-0.16,0.84
171276956,-0.50,-0.16,0.84
171278958,-0.50,-0.16,0.84
171281034,-0.50,-0.16,0.84
171283036,-0.50,-0.17,0.83
171285012,-0.50,-0.17,0.83
171287011,-0.50,-0.17,0.83
171289066,-0.50,-0.17,0.83
171291049,-0.50,-0.17,0.83
171293011,-0.47,-0.17,0.84
171295019,-0.47,-0.17,0.84
171297045,-0.47,-0.17,0.84
171299027,-0.47,-0.17,0.84
171300971,-0.47,-0.17,0.84
171302968,-0.46,-0.18,0.84
171304970,-0.46,-0.18,0.84
171307041,-0.46,-0.18,0.84
171308994,-0.46,-0.18,0.84
171310967,-0.46,-0.18,0.84
171312972,-0.48,-0.20,0.82
171315052,-0.48,-0.20,0.82
171316969,-0.48,-0.20,0.82
171318978,-0.48,-0.20,0.82
171321031,-0.48,-0.20,0.82
171323037,-0.50,-0.20,0.82
171325024,-0.50,-0.20,0.82
171327012,-0.50,-0.20,0.82
171329032,-0.50,-0.20,0.82
171331042,-0.50,-0.20,0.82
171333016,-0.51,-0.23,0.62
171335013,-0.51,-0.23,0.62
171337008,-0.51,-0.23,0.62
171338971,-0.51,-0.23,0.62
171341081,-0.51,-0.23,0.62
171343040,-0.51,-0.23,0.62
171345009,-0.50,-0.18,0.83
171346969,-0.50,-0.18,0.83
171348966,-0.50,-0.18,0.83
171350966,-0.50,-0.18,0.83
171353016,-0.50,-0.18,0.83
171354967,-0.50,-0.20,0.80
171356968,-0.50,-0.20,0.80
171358967,-0.50,-0.20,0.80
171361029,-0.50,-0.20,0.80
171363012,-0.50,-0.20,0.80
171365118,-0.48,-0.18,1.10
171367021,-0.48,-0.18,1.10
171369018,-0.48,-0.18,1.10
171371048,-0.48,-0.18,1.10
171373036,-0.48,-0.18,1.10
171375010,-0.46,-0.19,0.95
171377013,-0.46,-0.19,0.95
171378972,-0.46,-0.19,0.95
171380970,-0.46,-0.19,0.95
171383045,-0.46,-0.19,0.95
171385018,-0.49,-0.20,0.69
171386974,-0.49,-0.20,0.69
171388970,-0.49,-0.20,0.69
171391079,-0.49,-0.20,0.69
171393031,-0.49,-0.20,0.69
171395001,-0.56,-0.39,0.50
171396970,-0.56,-0.39,0.50
171398958,-0.56,-0.39,0.50
171401031,-0.56,-0.39,0.50
171403013,-0.56,-0.39,0.50
171405009,-0.45,-0.31,0.77
171407012,-0.45,-0.31,0.77
171409013,-0.45,-0.31,0.77
171411012,-0.45,-0.31,0.77
171413006,-0.45,-0.31,0.77
171415126,-0.48,-0.44,0.66
171417011,-0.48,-0.44,0.66
171418967,-0.48,-0.44,0.66
171420972,-0.48,-0.44,0.66
171422966,-0.48,-0.44,0.66
171424968,-0.48,-0.44,0.66
171426967,-0.51,-0.41,0.82
171428970,-0.51,-0.41,0.82
171431017,-0.51,-0.41,0.82
171432968,-0.51,-0.41,0.82
171434966,-0.51,-0.41,0.82
171436966,-0.52,-0.42,0.79
171438966,-0.52,-0.42,0.79
171441132,-0.52,-0.42,0.79
171443016,-0.52,-0.42,0.79
171445013,-0.52,-0.42,0.79
171447023,-0.51,-0.40,0.77
171449084,-0.51,-0.40,0.77
171451021,-0.51,-0.40,0.77
171453014,-0.51,-0.40,0.77
171455007,-0.51,-0.40,0.77
171457011,-0.51,-0.38,0.75
171459042,-0.51,-0.38,0.75
171460985,-0.51,-0.38,0.75
171462968,-0.51,-0.38,0.75
171465062,-0.51,-0.38,0.75
171466989,-0.48,-0.39,0.81
171469016,-0.48,-0.39,0.81
171470966,-0.48,-0.39,0.81
171472958,-0.48,-0.39,0.81
171474958,-0.48,-0.39,0.81
171476966,-0.50,-0.41,0.45
171478965,-0.50,-0.41,0.45
171481031,-0.50,-0.41,0.45
171483028,-0.50,-0.41,0.45
171485008,-0.50,-0.41,0.45
171487012,-0.47,-0.41,0.76
171489048,-0.47,-0.41,0.76
171491128,-0.47,-0.41,0.76
171493017,-0.47,-0.41,0.76
171495018,-0.47,-0.41,0.76
171497017,-0.47,-0.41,0.76
171499035,-0.47,-0.48,0.72
171500991,-0.47,-0.48,0.72
171502969,-0.47,-0.48,0.72
171504974,-0.47,-0.48,0.72
171506969,-0.47,-0.48,0.72
171508975,-0.48,-0.42,0.61
171510967,-0.48,-0.42,0.61
171512967,-0.48,-0.42,0.61
171515065,-0.48,-0.42,0.61
171517033,-0.48,-0.42,0.61
171519001,-0.48,-0.45,0.66
171521025,-0.48,-0.45,0.66
171523016,-0.48,-0.45,0.66
171525011,-0.48,-0.45,0.66
171527016,-0.48,-0.45,0.66
171529035,-0.47,-0.48,0.63
171531010,-0.47,-0.48,0.63
171533003,-0.47,-0.48,0.63
171534970,-0.47,-0.48,0.63
171536966,-0.47,-0.48,0.63
171538968,-0.47,-0.50,0.70
171541080,-0.47,-0.50,0.70
171542974,-0.47,-0.50,0.70
171544970,-0.47,-0.50,0.70
171547045,-0.47,-0.50,0.70
171548998,-0.48,-0.50,0.68
171550959,-0.48,-0.50,0.68
171552966,-0.48,-0.50,0.68
171554967,-0.48,-0.50,0.68
171556983,-0.48,-0.50,0.68
171559014,-0.48,-0.54,0.68
171561024,-0.48,-0.54,0.68
171563014,-0.48,-0.54,0.68
171565112,-0.48,-0.54,0.68
171567035,-0.48,-0.54,0.68
171569029,-0.48,-0.54,0.68
171571015,-0.50,-0.51,0.66
171573013,-0.50,-0.51,0.66
171575012,-0.50,-0.51,0.66
171577041,-0.50,-0.51,0.66
171579018,-0.50,-0.51,0.66
171580972,-0.54,-0.46,0.66
171583010,-0.54,-0.46,0.66
171584975,-0.54,-0.46,0.66
171587031,-0.54,-0.46,0.66
171588993,-0.54,-0.46,0.66
171591083,-0.50,-0.49,0.66
171592976,-0.50,-0.49,0.66
171594986,-0.50,-0.49,0.66
171596969,-0.50,-0.49,0.66
171598966,-0.50,-0.49,0.66
171601029,-0.48,-0.55,0.66
171603013,-0.48,-0.55,0.66
171605007,-0.48,-0.55,0.66
171607010,-0.48,-0.55,0.66
171609037,-0.48,-0.55,0.66
171611017,-0.48,-0.55,0.65
171613010,-0.48,-0.55,0.65
171615111,-0.48,-0.55,0.65
171617039,-0.48,-0.55,0.65
171619018,-0.48,-0.55,0.65
171620969,-0.48,-0.58,0.66
171622973,-0.48,-0.58,0.66
171624968,-0.48,-0.58,0.66
171627029,-0.48,-0.58,0.66
171628997,-0.48,-0.58,0.66
171631002,-0.47,-0.60,0.66
171632967,-0.47,-0.60,0.66
171634968,-0.47,-0.60,0.66
171636967,-0.47,-0.60,0.66
171638975,-0.47,-0.60,0.66
171641134,-0.47,-0.57,0.62
171643012,-0.47,-0.57,0.62
171645006,-0.47,-0.57,0.62
171647006,-0.47,-0.57,0.62
171649016,-0.47,-0.57,0.62
171651081,-0.47,-0.57,0.62
171653024,-0.49,-0.55,0.65
171655011,-0.49,-0.55,0.65
171656994,-0.49,-0.55,0.65
171658977,-0.49,-0.55,0.65
171661056,-0.49,-0.55,0.65
171662973,-0.50,-0.55,0.63
171665064,-0.50,-0.55,0.63
171666975,-0.50,-0.55,0.63
171668994,-0.50,-0.55,0.63
171671015,-0.50,-0.55,0.63
171672966,-0.53,-0.52,0.62
171674969,-0.53,-0.52,0.62
171676959,-0.53,-0.52,0.62
171678958,-0.53,-0.52,0.62
171681034,-0.53,-0.52,0.62
171683035,-0.52,-0.49,0.60
171685016,-0.52,-0.49,0.60
171687033,-0.52,-0.49,0.60
171689081,-0.52,-0.49,0.60
171691133,-0.52,-0.49,0.60
171693014,-0.50,-0.53,0.58
171695015,-0.50,-0.53,0.58
171697048,-0.50,-0.53,0.58
171699038,-0.50,-0.53,0.58
171701006,-0.50,-0.53,0.58
171702974,-0.47,-0.61,0.63
171704972,-0.47,-0.61,0.63
171707041,-0.47,-0.61,0.63
171709007,-0.47,-0.61,0.63
171710979,-0.47,-0.61,0.63
171712967,-0.46,-0.66,0.59
171715061,-0.46,-0.66,0.59
171716979,-0.46,-0.66,0.59
171718971,-0.46,-0.66,0.59
171721049,-0.46,-0.66,0.59
171723057,-0.46,-0.66,0.59
171725028,-0.46,-0.64,0.57
171727009,-0.46,-0.64,0.57
171729007,-0.46,-0.64,0.57
171731008,-0.46,-0.64,0.57
171733042,-0.46,-0.64,0.57
171735029,-0.46,-0.63,0.60
171737026,-0.46,-0.63,0.60
171739004,-0.46,-0.63,0.60
171741074,-0.46,-0.63,0.60
171742997,-0.46,-0.63,0.60
171745055,-0.46,-0.61,0.60
171746997,-0.46,-0.61,0.60
171748969,-0.46,-0.61,0.60
171750973,-0.46,-0.61,0.60
171753016,-0.46,-0.61,0.60
171754969,-0.48,-0.61,0.58
171756973,-0.48,-0.61,0.58
171758969,-0.48,-0.61,0.58
171761030,-0.48,-0.61,0.58
171763012,-0.48,-0.61,0.58
171765109,-0.50,-0.55,0.57
171767044,-0.50,-0.55,0.57
171769035,-0.50,-0.55,0.57
171771015,-0.50,-0.55,0.57
171773009,-0.50,-0.55,0.57
171775008,-0.49,-0.56,0.54
171777042,-0.49,-0.56,0.54
171779009,-0.49,-0.56,0.54
171780973,-0.49,-0.56,0.54
171783010,-0.49,-0.56,0.54
171784970,-0.46,-0.64,0.57
171787018,-0.46,-0.64,0.57
171788959,-0.46,-0.64,0.57
171791075,-0.46,-0.64,0.57
171792970,-0.46,-0.64,0.57
171794981,-0.46,-0.64,0.57
171796966,-0.46,-0.66,0.59
171798967,-0.46,-0.66,0.59
171801023,-0.46,-0.66,0.59
171803014,-0.46,-0.66,0.59
171805009,-0.46,-0.66,0.59
171807033,-0.46,-0.67,0.61
171809055,-0.46,-0.67,0.61
171811020,-0.46,-0.67,0.61
171813013,-0.46,-0.67,0.61
171815113,-0.46,-0.67,0.61
171816996,-0.45,-0.67,0.59
171819041,-0.45,-0.67,0.59
171820989,-0.45,-0.67,0.59
171822972,-0.45,-0.67,0.59
171824981,-0.45,-0.67,0.59
171827020,-0.45,-0.67,0.55
171828998,-0.45,-0.67,0.55
171830965,-0.45,-0.67,0.55
171832966,-0.45,-0.67,0.55
171834968,-0.45,-0.67,0.55
171836969,-0.48,-0.61,0.56
171838968,-0.48,-0.61,0.56
171841132,-0.48,-0.61,0.56
171843009,-0.48,-0.61,0.56
171845009,-0.48,-0.61,0.56
171847006,-0.50,-0.59,0.55
171849006,-0.50,-0.59,0.55
171851014,-0.50,-0.59,0.55
171853079,-0.50,-0.59,0.55
171855027,-0.50,-0.59,0.55
171856994,-0.49,-0.59,0.55
171858968,-0.49,-0.59,0.55
171860966,-0.49,-0.59,0.55
171863035,-0.49,-0.59,0.55
171865115,-0.49,-0.59,0.55
171866980,-0.48,-0.58,0.53
171868969,-0.48,-0.58,0.53
171870993,-0.48,-0.58,0.53
171873017,-0.48,-0.58,0.53
171874971,-0.48,-0.58,0.53
171876958,-0.48,-0.58,0.53
171878968,-0.48,-0.62,0.53
171881031,-0.48,-0.62,0.53
171883029,-0.48,-0.62,0.53
171885011,-0.48,-0.62,0.53
171887011,-0.48,-0.62,0.53
171889080,-0.45,-0.66,0.56
171891130,-0.45,-0.66,0.56
171893015,-0.45,-0.66,0.56
171895017,-0.45,-0.66,0.56
171897009,-0.45,-0.66,0.56
171899035,-0.45,-0.73,0.60
171901000,-0.45,-0.73,0.60
171902970,-0.45,-0.73,0.60
171904969,-0.45,-0.73,0.60
171907017,-0.45,-0.73,0.60
171909005,-0.45,-0.70,0.59
171910975,-0.45,-0.70,0.59
171912968,-0.45,-0.70,0.59
171915063,-0.45,-0.70,0.59
171916979,-0.45,-0.70,0.59
171918959,-0.45,-0.71,0.57
171921031,-0.45,-0.71,0.57
171923012,-0.45,-0.71,0.57
171925007,-0.45,-0.71,0.57
171927006,-0.45,-0.71,0.57
171929012,-0.45,-0.67,0.57
171931076,-0.45,-0.67,0.57
171933019,-0.45,-0.67,0.57
171935007,-0.45,-0.67,0.57
171936972,-0.45,-0.67,0.57
171939012,-0.45,-0.67,0.55
171941077,-0.45,-0.67,0.55
171942969,-0.45,-0.67,0.55
171944973,-0.45,-0.67,0.55
171946995,-0.45,-0.67,0.55
171949036,-0.46,-0.64,0.54
171950984,-0.46,-0.64,0.54
171952967,-0.46,-0.64,0.54
171954981,-0.46,-0.64,0.54
171957017,-0.46,-0.64,0.54
171958969,-0.46,-0.64,0.54
171961030,-0.49,-0.59,0.52
171963012,-0.49,-0.59,0.52
171965113,-0.49,-0.59,0.52
171967022,-0.49,-0.59,0.52
171969010,-0.49,-0.59,0.52
171971015,-0.48,-0.59,0.50
171973034,-0.48,-0.59,0.50
171975022,-0.48,-0.59,0.50
171976974,-0.48,-0.59,0.50
171978974,-0.48,-0.59,0.50
171980973,-0.46,-0.63,0.51
171983057,-0.46,-0.63,0.51
171985007,-0.46,-0.63,0.51
171986969,-0.46,-0.63,0.51
171988968,-0.46,-0.63,0.51
171991077,-0.44,-0.68,0.54
171993019,-0.44,-0.68,0.54
171994984,-0.44,-0.68,0.54
171996965,-0.44,-0.68,0.54
171998967,-0.44,-0.68,0.54
172001031,-0.43,-0.71,0.51
172003015,-0.43,-0.71,0.51
172005009,-0.43,-0.71,0.51
172007009,-0.43,-0.71,0.51
172009008,-0.43,-0.71,0.51
172011009,-0.43,-0.73,0.54
172013017,-0.43,-0.73,0.54
172015109,-0.43,-0.73,0.54
172016975,-0.43,-0.73,0.54
172018972,-0.43,-0.73,0.54
172020967,-0.42,-0.75,0.54
172022969,-0.42,-0.75,0.54
172024971,-0.42,-0.75,0.54
172026974,-0.42,-0.75,0.54
172028968,-0.42,-0.75,0.54
172030969,-0.42,-0.75,0.54
172032988,-0.42,-0.73,0.51
172034966,-0.42,-0.73,0.51
172036966,-0.42,-0.73,0.51
172038979,-0.42,-0.73,0.51
172041110,-0.42,-0.73,0.51
172043009,-0.43,-0.72,0.51
172045012,-0.43,-0.72,0.51
172047009,-0.43,-0.72,0.51
172049011,-0.43,-0.72,0.51
172051009,-0.43,-0.72,0.51
172053010,-0.42,-0.71,0.51
172054971,-0.42,-0.71,0.51
172056967,-0.42,-0.71,0.51
172058973,-0.42,-0.71,0.51
172060967,-0.42,-0.71,0.51
172062968,-0.45,-0.70,0.51
172065045,-0.45,-0.70,0.51
172066975,-0.45,-0.70,0.51
172068967,-0.45,-0.70,0.51
172070968,-0.45,-0.70,0.51
172072971,-0.45,-0.67,0.51
172074975,-0.45,-0.67,0.51
172076971,-0.45,-0.67,0.51
172078969,-0.45,-0.67,0.51
172081013,-0.45,-0.67,0.51
172083031,-0.44,-0.70,0.49
172085008,-0.44,-0.70,0.49
172087007,-0.44,-0.70,0.49
172089017,-0.44,-0.70,0.49
172091131,-0.44,-0.70,0.49
172093014,-0.43,-0.72,0.50
172094990,-0.43,-0.72,0.50
172096971,-0.43,-0.72,0.50
172098979,-0.43,-0.72,0.50
172100968,-0.43,-0.72,0.50
172102971,-0.43,-0.72,0.50
172104969,-0.40,-0.74,0.49
172106969,-0.40,-0.74,0.49
172108968,-0.40,-0.74,0.49
172110979,-0.40,-0.74,0.49
172113061,-0.40,-0.74,0.49
172115105,-0.40,-0.75,0.49
172116978,-0.40,-0.75,0.49
172118966,-0.40,-0.75,0.49
172121020,-0.40,-0.75,0.49
172123009,-0.40,-0.75,0.49
172125008,-0.39,-0.77,0.51
172127014,-0.39,-0.77,0.51
172129042,-0.39,-0.77,0.51
172131021,-0.39,-0.77,0.51
172133010,-0.39,-0.77,0.51
172134992,-0.39,-0.79,0.50
172136971,-0.39,-0.79,0.50
172138966,-0.39,-0.79,0.50
172141072,-0.39,-0.79,0.50
172142969,-0.39,-0.79,0.50
172144969,-0.40,-0.78,0.48
172146966,-0.40,-0.78,0.48
172148969,-0.40,-0.78,0.48
172150971,-0.40,-0.78,0.48
172152967,-0.40,-0.78,0.48
172154972,-0.41,-0.79,0.50
172156974,-0.41,-0.79,0.50
172158975,-0.41,-0.79,0.50
172161013,-0.41,-0.79,0.50
172163011,-0.41,-0.79,0.50
172165087,-0.40,-0.81,0.49
172167011,-0.40,-0.81,0.49
172169007,-0.40,-0.81,0.49
172171005,-0.40,-0.81,0.49
172172971,-0.40,-0.81,0.49
172174974,-0.42,-0.75,0.49
172176973,-0.42,-0.75,0.49
172178969,-0.42,-0.75,0.49
172180980,-0.42,-0.75,0.49
172183009,-0.42,-0.75,0.49
172184968,-0.42,-0.75,0.49
172186966,-0.42,-0.74,0.48
172188995,-0.42,-0.74,0.48
172191072,-0.42,-0.74,0.48
172192978,-0.42,-0.74,0.48
172194992,-0.42,-0.74,0.48
172196967,-0.41,-0.72,0.45
172198968,-0.41,-0.72,0.45
172201017,-0.41,-0.72,0.45
172203008,-0.41,-0.72,0.45
172205017,-0.41,-0.72,0.45
172207033,-0.42,-0.71,0.46
172209014,-0.42,-0.71,0.46
172211032,-0.42,-0.71,0.46
172213050,-0.42,-0.71,0.46
172215120,-0.42,-0.71,0.46
172216977,-0.43,-0.70,0.46
172218970,-0.43,-0.70,0.46
172220967,-0.43,-0.70,0.46
172222969,-0.43,-0.70,0.46
172224966,-0.43,-0.70,0.46
172226966,-0.43,-0.70,0.44
172228983,-0.43,-0.70,0.44
172231046,-0.43,-0.70,0.44
172232981,-0.43,-0.70,0.44
172234967,-0.43,-0.70,0.44
172236968,-0.39,-0.73,0.42
172238959,-0.39,-0.73,0.42
172241128,-0.39,-0.73,0.42
172243010,-0.39,-0.73,0.42
172245033,-0.39,-0.73,0.42
172247011,-0.36,-0.78,0.43
172249010,-0.36,-0.78,0.43
172251013,-0.36,-0.78,0.43
172253080,-0.36,-0.78,0.43
172255023,-0.36,-0.78,0.43
172256998,-0.36,-0.78,0.43
172258971,-0.35,-0.80,0.43
172260968,-0.35,-0.80,0.43
172262967,-0.35,-0.80,0.43
172265066,-0.35,-0.80,0.43
172266985,-0.35,-0.80,0.43
172268969,-0.38,-0.82,0.46
172270972,-0.38,-0.82,0.46
172272968,-0.38,-0.82,0.46
172274966,-0.38,-0.82,0.46
172276969,-0.38,-0.82,0.46
172278970,-0.38,-0.80,0.48
172281013,-0.38,-0.80,0.48
172283026,-0.38,-0.80,0.48
172285012,-0.38,-0.80,0.48
172287007,-0.38,-0.80,0.48
172289018,-0.37,-0.79,0.45
172291098,-0.37,-0.79,0.45
172292978,-0.37,-0.79,0.45
172294990,-0.37,-0.79,0.45
172296968,-0.37,-0.79,0.45
172298967,-0.37,-0.79,0.44
172300974,-0.37,-0.79,0.44
172302968,-0.37,-0.79,0.44
172304967,-0.37,-0.79,0.44
172306958,-0.37,-0.79,0.44
172308967,-0.38,-0.78,0.44
172310969,-0.38,-0.78,0.44
172312968,-0.38,-0.78,0.44
172314959,-0.38,-0.78,0.44
172316971,-0.38,-0.78,0.44
172318979,-0.38,-0.77,0.43
172321017,-0.38,-0.77,0.43
172323013,-0.38,-0.77,0.43
172325017,-0.38,-0.77,0.43
172327011,-0.38,-0.77,0.43
172329007,-0.38,-0.77,0.43
172331008,-0.38,-0.77,0.43
172332969,-0.38,-0.77,0.43
172334967,-0.38,-0.77,0.43
172336967,-0.38,-0.77,0.43
172338965,-0.38,-0.77,0.43
172341054,-0.38,-0.78,0.44
172342967,-0.38,-0.78,0.44
172344966,-0.38,-0.78,0.44
172347015,-0.38,-0.78,0.44
172349004,-0.38,-0.78,0.44
172350970,-0.41,-0.74,0.44
172352971,-0.41,-0.74,0.44
172354970,-0.41,-0.74,0.44
172356968,-0.41,-0.74,0.44
172358968,-0.41,-0.74,0.44
172361015,-0.40,-0.75,0.43
172363023,-0.40,-0.75,0.43
172365126,-0.40,-0.75,0.43
172367039,-0.40,-0.75,0.43
172369017,-0.40,-0.75,0.43
172371016,-0.37,-0.78,0.43
172373017,-0.37,-0.78,0.43
172375003,-0.37,-0.78,0.43
172376970,-0.37,-0.78,0.43
172378969,-0.37,-0.78,0.43
172380968,-0.36,-0.80,0.44
172383006,-0.36,-0.80,0.44
172384968,-0.36,-0.80,0.44
172387115,-0.36,-0.80,0.44
172388996,-0.36,-0.80,0.44
172391074,-0.38,-0.80,0.44
172392972,-0.38,-0.80,0.44
172394987,-0.38,-0.80,0.44
172397016,-0.38,-0.80,0.44
172399000,-0.38,-0.80,0.44
172401027,-0.38,-0.79,0.45
172403014,-0.38,-0.79,0.45
172405007,-0.38,-0.79,0.45
172407008,-0.38,-0.79,0.45
172409007,-0.38,-0.79,0.45
172411009,-0.38,-0.79,0.45
172413003,-0.38,-0.77,0.42
172415064,-0.38,-0.77,0.42
172416982,-0.38,-0.77,0.42
172418969,-0.38,-0.77,0.42
172420967,-0.38,-0.77,0.42
172422966,-0.38,-0.80,0.45
172424968,-0.38,-0.80,0.45
172426977,-0.38,-0.80,0.45
172428974,-0.38,-0.80,0.45
172430974,-0.38,-0.80,0.45
172432975,-0.37,-0.78,0.42
172434969,-0.37,-0.78,0.42
172436971,-0.37,-0.78,0.42
172438971,-0.37,-0.78,0.42
172441083,-0.37,-0.78,0.42
172443014,-0.37,-0.80,0.43
172445018,-0.37,-0.80,0.43
172447016,-0.37,-0.80,0.43
172449017,-0.37,-0.80,0.43
172451035,-0.37,-0.80,0.43
172453006,-0.37,-0.79,0.44
172454971,-0.37,-0.79,0.44
172456967,-0.37,-0.79,0.44
172458967,-0.37,-0.79,0.44
172460971,-0.37,-0.79,0.44
172462966,-0.38,-0.77,0.42
172465056,-0.38,-0.77,0.42
172466974,-0.38,-0.77,0.42
172468969,-0.38,-0.77,0.42
172470970,-0.38,-0.77,0.42
172472967,-0.38,-0.77,0.41
172474968,-0.38,-0.77,0.41
172476967,-0.38,-0.77,0.41
172478966,-0.38,-0.77,0.41
172481009,-0.38,-0.77,0.41
172483031,-0.36,-0.79,0.41
172485008,-0.36,-0.79,0.41
172487018,-0.36,-0.79,0.41
172489020,-0.36,-0.79,0.41
172491143,-0.36,-0.79,0.41
172493020,-0.36,-0.79,0.41
172495014,-0.35,-0.80,0.41
172496967,-0.35,-0.80,0.41
172498967,-0.35,-0.80,0.41
172500968,-0.35,-0.80,0.41
172502967,-0.35,-0.80,0.41
172504974,-0.35,-0.81,0.41
172506968,-0.35,-0.81,0.41
172508966,-0.35,-0.81,0.41
172510969,-0.35,-0.81,0.41
172512972,-0.35,-0.81,0.41
172515046,-0.35,-0.81,0.40
172516981,-0.35,-0.81,0.40
172518974,-0.35,-0.81,0.40
172521042,-0.35,-0.81,0.40
172523039,-0.35,-0.81,0.40
172525043,-0.35,-0.82,0.41
172527015,-0.35,-0.82,0.41
172529005,-0.35,-0.82,0.41
172531010,-0.35,-0.82,0.41
172533037,-0.35,-0.82,0.41
172535034,-0.36,-0.80,0.41
172537013,-0.36,-0.80,0.41
172538975,-0.36,-0.80,0.41
172541076,-0.36,-0.80,0.41
172542969,-0.36,-0.80,0.41
172544969,-0.39,-0.80,0.41
172546972,-0.39,-0.80,0.41
172548969,-0.39,-0.80,0.41
172550986,-0.39,-0.80,0.41
172553012,-0.39,-0.80,0.41
172554966,-0.39,-0.80,0.43
172556976,-0.39,-0.80,0.43
172558971,-0.39,-0.80,0.43
172561017,-0.39,-0.80,0.43
172563007,-0.39,-0.80,0.43
172565091,-0.39,-0.80,0.43
172567008,-0.38,-0.79,0.41
172569008,-0.38,-0.79,0.41
172571001,-0.38,-0.79,0.41
172572970,-0.38,-0.79,0.41
172574969,-0.38,-0.79,0.41
172576969,-0.36,-0.79,0.38
172578970,-0.36,-0.79,0.38
172580972,-0.36,-0.79,0.38
172583009,-0.36,-0.79,0.38
172584972,-0.36,-0.79,0.38
172586984,-0.37,-0.80,0.39
172588969,-0.37,-0.80,0.39
172591058,-0.37,-0.80,0.39
172592972,-0.37,-0.80,0.39
172594984,-0.37,-0.80,0.39
172596970,-0.40,-0.78,0.38
172598966,-0.40,-0.78,0.38
172601026,-0.40,-0.78,0.38
172603022,-0.40,-0.78,0.38
172605056,-0.40,-0.78,0.38
172607037,-0.41,-0.81,0.41
172609018,-0.41,-0.81,0.41
172611017,-0.41,-0.81,0.41
172613007,-0.41,-0.81,0.41
172615115,-0.41,-0.81,0.41
172616971,-0.40,-0.79,0.46
172618971,-0.40,-0.79,0.46
172620966,-0.40,-0.79,0.46
172622973,-0.40,-0.79,0.46
172624967,-0.40,-0.79,0.46
172627105,-0.38,-0.80,0.41
172628998,-0.38,-0.80,0.41
172630969,-0.38,-0.80,0.41
172632958,-0.38,-0.80,0.41
172634968,-0.38,-0.80,0.41
172636979,-0.38,-0.80,0.41
172639015,-0.35,-0.83,0.35
172641132,-0.35,-0.83,0.35
172643023,-0.35,-0.83,0.35
172645007,-0.35,-0.83,0.35
172647058,-0.35,-0.83,0.35
172649030,-0.36,-0.83,0.36
172651009,-0.36,-0.83,0.36
172653022,-0.36,-0.83,0.36
172655042,-0.36,-0.83,0.36
172657020,-0.36,-0.83,0.36
172659053,-0.37,-0.81,0.39
172661012,-0.37,-0.81,0.39
172662967,-0.37,-0.81,0.39
172665060,-0.37,-0.81,0.39
172666980,-0.37,-0.81,0.39
172668971,-0.36,-0.81,0.38
172670982,-0.36,-0.81,0.38
172673050,-0.36,-0.81,0.38
172674981,-0.36,-0.81,0.38
172676966,-0.36,-0.81,0.38
172679021,-0.36,-0.80,0.33
172681052,-0.36,-0.80,0.33
172683039,-0.36,-0.80,0.33
172685014,-0.36,-0.80,0.33
172687013,-0.36,-0.80,0.33
172689050,-0.37,-0.82,0.37
172691130,-0.37,-0.82,0.37
172693013,-0.37,-0.82,0.37
172695020,-0.37,-0.82,0.37
172697046,-0.37,-0.82,0.37
172699033,-0.36,-0.82,0.39
172701005,-0.36,-0.82,0.39
172703144,-0.36,-0.82,0.39
172705001,-0.36,-0.82,0.39
172707056,-0.36,-0.82,0.39
172709005,-0.38,-0.82,0.37
172710970,-0.38,-0.82,0.37
172712972,-0.38,-0.82,0.37
172715126,-0.38,-0.82,0.37
172716982,-0.38,-0.82,0.37
172718972,-0.38,-0.82,0.37
172721032,-0.38,-0.83,0.38
172723016,-0.38,-0.83,0.38
172725011,-0.38,-0.83,0.38
172727015,-0.38,-0.83,0.38
172729038,-0.38,-0.83,0.38
172731022,-0.38,-0.82,0.37
172733019,-0.38,-0.82,0.37
172735018,-0.38,-0.82,0.37
172737007,-0.38,-0.82,0.37
172738976,-0.38,-0.82,0.37
172741076,-0.37,-0.83,0.36
172742976,-0.37,-0.83,0.36
172744976,-0.37,-0.83,0.36
172746975,-0.37,-0.83,0.36
172748970,-0.37,-0.83,0.36
172750975,-0.37,-0.85,0.36
172752982,-0.37,-0.85,0.36
172754976,-0.37,-0.85,0.36
172757015,-0.37,-0.85,0.36
172758976,-0.37,-0.85,0.36
172761015,-0.36,-0.85,0.36
172763019,-0.36,-0.85,0.36
172765129,-0.36,-0.85,0.36
172767056,-0.36,-0.85,0.36
172769036,-0.36,-0.85,0.36
172771016,-0.37,-0.86,0.35
172773012,-0.37,-0.86,0.35
172775010,-0.37,-0.86,0.35
172776975,-0.37,-0.86,0.35
172778976,-0.37,-0.86,0.35
172780978,-0.38,-0.85,0.34
172783011,-0.38,-0.85,0.34
172784972,-0.38,-0.85,0.34
172787041,-0.38,-0.85,0.34
172788990,-0.38,-0.85,0.34
172791079,-0.38,-0.85,0.34
172792978,-0.38,-0.84,0.36
172794991,-0.38,-0.84,0.36
172797017,-0.38,-0.84,0.36
172799018,-0.38,-0.84,0.36
172801032,-0.38,-0.84,0.36
172803016,-0.36,-0.84,0.35
172805017,-0.36,-0.84,0.35
172807025,-0.36,-0.84,0.35
172809041,-0.36,-0.84,0.35
172811028,-0.36,-0.84,0.35
172813017,-0.35,-0.88,0.30
172815119,-0.35,-0.88,0.30
172817016,-0.35,-0.88,0.30
172818984,-0.35,-0.88,0.30
172820981,-0.35,-0.88,0.30
172822981,-0.36,-0.88,0.27
172824985,-0.36,-0.88,0.27
172826976,-0.36,-0.88,0.27
172828971,-0.36,-0.88,0.27
172830972,-0.36,-0.88,0.27
172832979,-0.38,-0.72,0.37
172834982,-0.38,-0.72,0.37
172836979,-0.38,-0.72,0.37
172838976,-0.38,-0.72,0.37
172841088,-0.38,-0.72,0.37
172843016,-0.38,-0.83,0.37
172845012,-0.38,-0.83,0.37
172847017,-0.38,-0.83,0.37
172849120,-0.38,-0.83,0.37
172851030,-0.38,-0.83,0.37
172853011,-0.34,-0.88,0.30
172855009,-0.34,-0.88,0.30
172856975,-0.34,-0.88,0.30
172858975,-0.34,-0.88,0.30
172861037,-0.34,-0.88,0.30
172862975,-0.34,-0.88,0.30
172865074,-0.34,-0.86,0.28
172867043,-0.34,-0.86,0.28
172869015,-0.34,-0.86,0.28
172870976,-0.34,-0.86,0.28
172872975,-0.34,-0.86,0.28
172874983,-0.34,-0.86,0.31
172877018,-0.34,-0.86,0.31
172878972,-0.34,-0.86,0.31
172881032,-0.34,-0.86,0.31
172883033,-0.34,-0.86,0.31
172885018,-0.35,-0.86,0.31
172887028,-0.35,-0.86,0.31
172889039,-0.35,-0.86,0.31
172891127,-0.35,-0.86,0.31
172893014,-0.35,-0.86,0.31
172895018,-0.34,-0.87,0.29
172897133,-0.34,-0.87,0.29
172899027,-0.34,-0.87,0.29
172901007,-0.34,-0.87,0.29
172902978,-0.34,-0.87,0.29
172904976,-0.34,-0.87,0.29
172907044,-0.34,-0.87,0.29
172909028,-0.34,-0.87,0.29
172910970,-0.34,-0.87,0.29
172912969,-0.34,-0.87,0.29
172915101,-0.35,-0.86,0.29
172917020,-0.35,-0.86,0.29
172918968,-0.35,-0.86,0.29
172921031,-0.35,-0.86,0.29
172923012,-0.35,-0.86,0.29
172925010,-0.35,-0.86,0.30
172927017,-0.35,-0.86,0.30
172929062,-0.35,-0.86,0.30
172931024,-0.35,-0.86,0.30
172933007,-0.35,-0.86,0.30
172935008,-0.35,-0.86,0.31
172936990,-0.35,-0.86,0.31
172939039,-0.35,-0.86,0.31
172941078,-0.35,-0.86,0.31
172942967,-0.35,-0.86,0.31
172944969,-0.35,-0.86,0.31
172947023,-0.35,-0.87,0.30
172948968,-0.35,-0.87,0.30
172950972,-0.35,-0.87,0.30
172952967,-0.35,-0.87,0.30
172954969,-0.35,-0.87,0.30
172956972,-0.35,-0.87,0.29
172958969,-0.35,-0.87,0.29
172961037,-0.35,-0.87,0.29
172963031,-0.35,-0.87,0.29
172965111,-0.35,-0.87,0.29
172967039,-0.35,-0.86,0.28
172969059,-0.35,-0.86,0.28
172971032,-0.35,-0.86,0.28
172973008,-0.35,-0.86,0.28
172975008,-0.35,-0.86,0.28
172977046,-0.34,-0.85,0.27
172979033,-0.34,-0.85,0.27
172981008,-0.34,-0.85,0.27
172982999,-0.34,-0.85,0.27
172984969,-0.34,-0.85,0.27
172987036,-0.34,-0.84,0.26
172988995,-0.34,-0.84,0.26
172991076,-0.34,-0.84,0.26
172992974,-0.34,-0.84,0.26
172995021,-0.34,-0.84,0.26
172996967,-0.33,-0.85,0.26
172998959,-0.33,-0.85,0.26
173001031,-0.33,-0.85,0.26
173003014,-0.33,-0.85,0.26
173005008,-0.33,-0.85,0.26
173007016,-0.34,-0.89,0.28
173009041,-0.34,-0.89,0.28
173011017,-0.34,-0.89,0.28
173013012,-0.34,-0.89,0.28
173015120,-0.34,-0.89,0.28
173017007,-0.34,-0.89,0.28
173019044,-0.34,-0.86,0.26
173020999,-0.34,-0.86,0.26
173022959,-0.34,-0.86,0.26
173024971,-0.34,-0.86,0.26
173026959,-0.34,-0.86,0.26
173028959,-0.34,-0.85,0.25
173030957,-0.34,-0.85,0.25
173032968,-0.34,-0.85,0.25
173034966,-0.34,-0.85,0.25
173036967,-0.34,-0.85,0.25
173038958,-0.34,-0.84,0.26
173041127,-0.34,-0.84,0.26
173043010,-0.34,-0.84,0.26
173045008,-0.34,-0.84,0.26
173047050,-0.34,-0.84,0.26
173049029,-0.34,-0.84,0.26
173051010,-0.34,-0.84,0.26
173053010,-0.34,-0.84,0.26
173055016,-0.34,-0.84,0.26
173057021,-0.34,-0.84,0.26
173058972,-0.32,-0.89,0.25
173060971,-0.32,-0.89,0.25
173062972,-0.32,-0.89,0.25
173065069,-0.32,-0.89,0.25
173067008,-0.32,-0.89,0.25
173069003,-0.32,-0.90,0.22
173071020,-0.32,-0.90,0.22
173072959,-0.32,-0.90,0.22
173074978,-0.32,-0.90,0.22
173076967,-0.32,-0.90,0.22
173078967,-0.33,-0.91,0.25
173081034,-0.33,-0.91,0.25
173083031,-0.33,-0.91,0.25
173085008,-0.33,-0.91,0.25
173087012,-0.33,-0.91,0.25
173089042,-0.32,-0.89,0.28
173091125,-0.32,-0.89,0.28
173093016,-0.32,-0.89,0.28
173095018,-0.32,-0.89,0.28
173097050,-0.32,-0.89,0.28
173099044,-0.32,-0.89,0.28
173101003,-0.32,-0.90,0.26
173102972,-0.32,-0.90,0.26
173104970,-0.32,-0.90,0.26
173107041,-0.32,-0.90,0.26
173108997,-0.32,-0.90,0.26
173110967,-0.32,-0.89,0.26
173112959,-0.32,-0.89,0.26
173115071,-0.32,-0.89,0.26
173117022,-0.32,-0.89,0.26
173118968,-0.32,-0.89,0.26
173121030,-0.33,-0.89,0.24
173123014,-0.33,-0.89,0.24
173125009,-0.33,-0.89,0.24
173127041,-0.33,-0.89,0.24
173129030,-0.33,-0.89,0.24
173131019,-0.32,-0.90,0.23
173133010,-0.32,-0.90,0.23
173135007,-0.32,-0.90,0.23
173136996,-0.32,-0.90,0.23
173139021,-0.32,-0.90,0.23
173141073,-0.32,-0.89,0.21
173142967,-0.32,-0.89,0.21
173144970,-0.32,-0.89,0.21
173146986,-0.32,-0.89,0.21
173149017,-0.32,-0.89,0.21
173150968,-0.32,-0.89,0.23
173152966,-0.32,-0.89,0.23
173154958,-0.32,-0.89,0.23
173156958,-0.32,-0.89,0.23
173158967,-0.32,-0.89,0.23
173161027,-0.32,-0.89,0.24
173163010,-0.32,-0.89,0.24
173165110,-0.32,-0.89,0.24
173167026,-0.32,-0.89,0.24
173169045,-0.32,-0.89,0.24
173171031,-0.32,-0.89,0.24
173173012,-0.32,-0.87,0.24
173175009,-0.32,-0.87,0.24
173177034,-0.32,-0.87,0.24
173179018,-0.32,-0.87,0.24
173180970,-0.32,-0.87,0.24
173183006,-0.31,-0.88,0.22
173184959,-0.31,-0.88,0.22
173187019,-0.31,-0.88,0.22
173188972,-0.31,-0.88,0.22
173191083,-0.31,-0.88,0.22
173192970,-0.31,-0.89,0.20
173194984,-0.31,-0.89,0.20
173196966,-0.31,-0.89,0.20
173198969,-0.31,-0.89,0.20
173201029,-0.31,-0.89,0.20
173203016,-0.30,-0.88,0.21
173205011,-0.30,-0.88,0.21
173207024,-0.30,-0.88,0.21
173209042,-0.30,-0.88,0.21
173211020,-0.30,-0.88,0.21
173213008,-0.30,-0.88,0.21
173215106,-0.30,-0.88,0.21
173216999,-0.30,-0.88,0.21
173218975,-0.30,-0.88,0.21
173221043,-0.30,-0.88,0.21
173222987,-0.31,-0.89,0.20
173224975,-0.31,-0.89,0.20
173226971,-0.31,-0.89,0.20
173228971,-0.31,-0.89,0.20
173230966,-0.31,-0.89,0.20
173232987,-0.30,-0.90,0.21
173235019,-0.30,-0.90,0.21
173236967,-0.30,-0.90,0.21
173238967,-0.30,-0.90,0.21
173241131,-0.30,-0.90,0.21
173243013,-0.32,-0.89,0.22
173245011,-0.32,-0.89,0.22
173247026,-0.32,-0.89,0.22
173249035,-0.32,-0.89,0.22
173251017,-0.32,-0.89,0.22
173253010,-0.32,-0.89,0.22
173255001,-0.32,-0.84,0.25
173256967,-0.32,-0.84,0.25
173258970,-0.32,-0.84,0.25
173260976,-0.32,-0.84,0.25
173263056,-0.32,-0.84,0.25
173265105,-0.33,-0.84,0.27
173266975,-0.33,-0.84,0.27
173268982,-0.33,-0.84,0.27
173271006,-0.33,-0.84,0.27
173272977,-0.33,-0.84,0.27
173275020,-0.33,-0.86,0.23
173276966,-0.33,-0.86,0.23
173278975,-0.33,-0.86,0.23
173281029,-0.33,-0.86,0.23
173283027,-0.33,-0.86,0.23
173285008,-0.31,-0.84,0.18
173287015,-0.31,-0.84,0.18
173289055,-0.31,-0.84,0.18
173291129,-0.31,-0.84,0.18
173293013,-0.31,-0.84,0.18
173295017,-0.34,-0.89,0.17
173297009,-0.34,-0.89,0.17
173298971,-0.34,-0.89,0.17
173300967,-0.34,-0.89,0.17
173302967,-0.34,-0.89,0.17
173305043,-0.35,-0.91,0.20
173307008,-0.35,-0.91,0.20
173308966,-0.35,-0.91,0.20
173310968,-0.35,-0.91,0.20
173312966,-0.35,-0.91,0.20
173315064,-0.36,-0.92,0.20
173317034,-0.36,-0.92,0.20
173319005,-0.36,-0.92,0.20
173321028,-0.36,-0.92,0.20
173323019,-0.36,-0.92,0.20
173325012,-0.36,-0.92,0.20
173327018,-0.34,-0.91,0.21
173329039,-0.34,-0.91,0.21
173331021,-0.34,-0.91,0.21
173333009,-0.34,-0.91,0.21
173335010,-0.34,-0.91,0.21
173336966,-0.34,-0.90,0.20
173338967,-0.34,-0.90,0.20
173341077,-0.34,-0.90,0.20
173342987,-0.34,-0.90,0.20
173344968,-0.34,-0.90,0.20
173346970,-0.34,-0.90,0.18
173348967,-0.34,-0.90,0.18
173350967,-0.34,-0.90,0.18
173352967,-0.34,-0.90,0.18
173354967,-0.34,-0.90,0.18
173356959,-0.36,-0.88,0.18
173358992,-0.36,-0.88,0.18
173361040,-0.36,-0.88,0.18
173363032,-0.36,-0.88,0.18
173365107,-0.36,-0.88,0.18
173367015,-0.39,-0.85,0.21
173369010,-0.39,-0.85,0.21
173371031,-0.39,-0.85,0.21
173373051,-0.39,-0.85,0.21
173375033,-0.39,-0.85,0.21
173377010,-0.36,-0.79,0.24
173379005,-0.36,-0.79,0.24
173380968,-0.36,-0.79,0.24
173382996,-0.36,-0.79,0.24
173384966,-0.36,-0.79,0.24
173386968,-0.35,-0.83,0.25
173388967,-0.35,-0.83,0.25
173391074,-0.35,-0.83,0.25
173393117,-0.35,-0.83,0.25
173395001,-0.35,-0.83,0.25
173396969,-0.35,-0.83,0.25
173398966,-0.36,-0.84,0.22
173401017,-0.36,-0.84,0.22
173403029,-0.36,-0.84,0.22
173405016,-0.36,-0.84,0.22
173407008,-0.36,-0.84,0.22
173409017,-0.37,-0.89,0.21
173411009,-0.37,-0.89,0.21
173413028,-0.37,-0.89,0.21
173415126,-0.37,-0.89,0.21
173417015,-0.37,-0.89,0.21
173418975,-0.36,-0.95,0.21
173420966,-0.36,-0.95,0.21
173422972,-0.36,-0.95,0.21
173424968,-0.36,-0.95,0.21
173427045,-0.36,-0.95,0.21
173428999,-0.37,-0.95,0.23
173430970,-0.37,-0.95,0.23
173432968,-0.37,-0.95,0.23
173434968,-0.37,-0.95,0.23
173437014,-0.37,-0.95,0.23
173438965,-0.41,-0.98,0.24
173441074,-0.41,-0.98,0.24
173443043,-0.41,-0.98,0.24
173445019,-0.41,-0.98,0.24
173447011,-0.41,-0.98,0.24
173449010,-0.38,-0.89,0.19
173451094,-0.38,-0.89,0.19
173453025,-0.38,-0.89,0.19
173455010,-0.38,-0.89,0.19
173457008,-0.38,-0.89,0.19
173458998,-0.38,-0.91,0.19
173460971,-0.38,-0.91,0.19
173462969,-0.38,-0.91,0.19
173465063,-0.38,-0.91,0.19
173466975,-0.38,-0.91,0.19
173468969,-0.38,-0.90,0.20
173470968,-0.38,-0.90,0.20
173472976,-0.38,-0.90,0.20
173475012,-0.38,-0.90,0.20
173476969,-0.38,-0.90,0.20
173478969,-0.38,-0.90,0.20
173480973,-0.39,-0.89,0.23
173483048,-0.39,-0.89,0.23
173485037,-0.39,-0.89,0.23
173487017,-0.39,-0.89,0.23
173489012,-0.39,-0.89,0.23
173491107,-0.40,-0.89,0.24
173493016,-0.40,-0.89,0.24
173495017,-0.40,-0.89,0.24
173497060,-0.40,-0.89,0.24
173499027,-0.40,-0.89,0.24
173501006,-0.39,-0.86,0.21
173502969,-0.39,-0.86,0.21
173504970,-0.39,-0.86,0.21
173506974,-0.39,-0.86,0.21
173509044,-0.39,-0.86,0.21
173510997,-0.40,-0.91,0.22
173512968,-0.40,-0.91,0.22
173515062,-0.40,-0.91,0.22
173516971,-0.40,-0.91,0.22
173518971,-0.40,-0.91,0.22
173520959,-0.39,-0.91,0.21
173523039,-0.39,-0.91,0.21
173525032,-0.39,-0.91,0.21
173527019,-0.39,-0.91,0.21
173529011,-0.39,-0.91,0.21
173531010,-0.38,-0.89,0.18
173533018,-0.38,-0.89,0.18
173535038,-0.38,-0.89,0.18
173537031,-0.38,-0.89,0.18
173539007,-0.38,-0.89,0.18
173541077,-0.38,-0.88,0.15
173542970,-0.38,-0.88,0.15
173545023,-0.38,-0.88,0.15
173547023,-0.38,-0.88,0.15
173548975,-0.38,-0.88,0.15
173550966,-0.38,-0.88,0.15
173552970,-0.38,-0.88,0.16
173555015,-0.38,-0.88,0.16
173556969,-0.38,-0.88,0.16
173558968,-0.38,-0.88,0.16
173560966,-0.38,-0.88,0.16
173563031,-0.38,-0.92,0.21
173565112,-0.38,-0.92,0.21
173567011,-0.38,-0.92,0.21
173569009,-0.38,-0.92,0.21
173571006,-0.38,-0.92,0.21
173573019,-0.38,-0.90,0.20
173575019,-0.38,-0.90,0.20
173577022,-0.38,-0.90,0.20
173579048,-0.38,-0.90,0.20
173581003,-0.38,-0.90,0.20
173583003,-0.38,-0.86,0.19
173584969,-0.38,-0.86,0.19
173586989,-0.38,-0.86,0.19
173588968,-0.38,-0.86,0.19
173591072,-0.38,-0.86,0.19
173592981,-0.37,-0.84,0.18
173594993,-0.37,-0.84,0.18
173596973,-0.37,-0.84,0.18
173598967,-0.37,-0.84,0.18
173600966,-0.37,-0.84,0.18
173603028,-0.36,-0.84,0.16
173605019,-0.36,-0.84,0.16
173607018,-0.36,-0.84,0.16
173609046,-0.36,-0.84,0.16
173611032,-0.36,-0.84,0.16
173613021,-0.35,-0.84,0.16
173615118,-0.35,-0.84,0.16
173617016,-0.35,-0.84,0.16
173618998,-0.35,-0.84,0.16
173620968,-0.35,-0.84,0.16
173622981,-0.36,-0.88,0.18
173625047,-0.36,-0.88,0.18
173626988,-0.36,-0.88,0.18
173628968,-0.36,-0.88,0.18
173630966,-0.36,-0.88,0.18
173632967,-0.36,-0.88,0.18
173634968,-0.37,-0.92,0.16
173636971,-0.37,-0.92,0.16
173638966,-0.37,-0.92,0.16
173641071,-0.37,-0.92,0.16
173643018,-0.37,-0.92,0.16
173645010,-0.35,-0.91,0.13
173647005,-0.35,-0.91,0.13
173649008,-0.35,-0.91,0.13
173651006,-0.35,-0.91,0.13
173653008,-0.35,-0.91,0.13
173654971,-0.36,-0.95,0.14
173656972,-0.36,-0.95,0.14
173658995,-0.36,-0.95,0.14
173661071,-0.36,-0.95,0.14
173662994,-0.36,-0.95,0.14
173665065,-0.37,-0.95,0.18
173666979,-0.37,-0.95,0.18
173668973,-0.37,-0.95,0.18
173670983,-0.37,-0.95,0.18
173673017,-0.37,-0.95,0.18
173674966,-0.35,-0.89,0.19
173676988,-0.35,-0.89,0.19
173679007,-0.35,-0.89,0.19
173680976,-0.35,-0.89,0.19
173683056,-0.35,-0.89,0.19
173685027,-0.36,-0.85,0.16
173687013,-0.36,-0.85,0.16
173689011,-0.36,-0.85,0.16
173691146,-0.36,-0.85,0.16
173693037,-0.36,-0.85,0.16
173695015,-0.36,-0.84,0.17
173697010,-0.36,-0.84,0.17
173699008,-0.36,-0.84,0.17
173701042,-0.36,-0.84,0.17
173703011,-0.36,-0.84,0.17
173704970,-0.36,-0.84,0.17
173706970,-0.35,-0.85,0.14
173708968,-0.35,-0.85,0.14
173710969,-0.35,-0.85,0.14
173712971,-0.35,-0.85,0.14
173715120,-0.35,-0.85,0.14
173717010,-0.36,-0.88,0.07
173718966,-0.36,-0.88,0.07
173720971,-0.36,-0.88,0.07
173723031,-0.36,-0.88,0.07
173725013,-0.36,-0.88,0.07
173727008,-0.35,-0.91,0.07
173729005,-0.35,-0.91,0.07
173731012,-0.35,-0.91,0.07
173733042,-0.35,-0.91,0.07
173735018,-0.35,-0.91,0.07
173737010,-0.35,-0.91,0.12
173738966,-0.35,-0.91,0.12
173741071,-0.35,-0.91,0.12
173742966,-0.35,-0.91,0.12
173744971,-0.35,-0.91,0.12
173746965,-0.36,-0.90,0.17
173748966,-0.36,-0.90,0.17
173750970,-0.36,-0.90,0.17
173752973,-0.36,-0.90,0.17
173755059,-0.36,-0.90,0.17
173756997,-0.35,-0.91,0.15
173758966,-0.35,-0.91,0.15
173760979,-0.35,-0.91,0.15
173763054,-0.35,-0.91,0.15
173765123,-0.35,-0.91,0.15
173767014,-0.36,-0.91,0.12
173769014,-0.36,-0.91,0.12
173771051,-0.36,-0.91,0.12
173773040,-0.36,-0.91,0.12
173775018,-0.36,-0.91,0.12
173777010,-0.36,-0.91,0.14
173779011,-0.36,-0.91,0.14
173781017,-0.36,-0.91,0.14
173783026,-0.36,-0.91,0.14
173785058,-0.36,-0.91,0.14
173787000,-0.36,-0.91,0.14
173788969,-0.36,-0.92,0.16
173791074,-0.36,-0.92,0.16
173792982,-0.36,-0.92,0.16
173794991,-0.36,-0.92,0.16
173796967,-0.36,-0.92,0.16
173798967,-0.36,-0.93,0.14
173800966,-0.36,-0.93,0.14
173803028,-0.36,-0.93,0.14
173805023,-0.36,-0.93,0.14
173807044,-0.36,-0.93,0.14
173809033,-0.32,-0.90,0.09
173811009,-0.32,-0.90,0.09
173813009,-0.32,-0.90,0.09
173815106,-0.32,-0.90,0.09
173817011,-0.32,-0.90,0.09
173818968,-0.37,-0.93,0.07
173820969,-0.37,-0.93,0.07
173822971,-0.37,-0.93,0.07
173824979,-0.37,-0.93,0.07
173826970,-0.37,-0.93,0.07
173828971,-0.36,-0.91,0.07
173830967,-0.36,-0.91,0.07
173833024,-0.36,-0.91,0.07
173835040,-0.36,-0.91,0.07
173836981,-0.36,-0.91,0.07
173838971,-0.33,-0.90,0.12
173841072,-0.33,-0.90,0.12
173843018,-0.33,-0.90,0.12
173845031,-0.33,-0.90,0.12
173847034,-0.33,-0.90,0.12
173849025,-0.32,-0.89,0.14
173851008,-0.32,-0.89,0.14
173853027,-0.32,-0.89,0.14
173855074,-0.32,-0.89,0.14
173857022,-0.32,-0.89,0.14
173859009,-0.32,-0.89,0.14
173860966,-0.32,-0.89,0.17
173862970,-0.32,-0.89,0.17
173865065,-0.32,-0.89,0.17
173866981,-0.32,-0.89,0.17
173868976,-0.32,-0.89,0.17
173871041,-0.30,-0.93,0.12
173872991,-0.30,-0.93,0.12
173874966,-0.30,-0.93,0.12
173876959,-0.30,-0.93,0.12
173878978,-0.30,-0.93,0.12
173881021,-0.28,-0.98,0.07
173883035,-0.28,-0.98,0.07
173885045,-0.28,-0.98,0.07
173887027,-0.28,-0.98,0.07
173889012,-0.28,-0.98,0.07
173891108,-0.29,-0.96,0.07
173893055,-0.29,-0.96,0.07
173895034,-0.29,-0.96,0.07
173897018,-0.29,-0.96,0.07
173899017,-0.29,-0.96,0.07
173901014,-0.30,-0.95,0.10
173902969,-0.30,-0.95,0.10
173904973,-0.30,-0.95,0.10
173906972,-0.30,-0.95,0.10
173909058,-0.30,-0.95,0.10
173910995,-0.29,-0.95,0.09
173912966,-0.29,-0.95,0.09
173915065,-0.29,-0.95,0.09
173916974,-0.29,-0.95,0.09
173918967,-0.29,-0.95,0.09
173920979,-0.29,-0.93,0.07
173923052,-0.29,-0.93,0.07
173925031,-0.29,-0.93,0.07
173927008,-0.29,-0.93,0.07
173929010,-0.29,-0.93,0.07
173931007,-0.29,-0.93,0.07
173933014,-0.30,-0.88,0.06
173935008,-0.30,-0.88,0.06
173936970,-0.30,-0.88,0.06
173938968,-0.30,-0.88,0.06
173941073,-0.30,-0.88,0.06
173942976,-0.32,-0.89,0.07
173944971,-0.32,-0.89,0.07
173947038,-0.32,-0.89,0.07
173949012,-0.32,-0.89,0.07
173950971,-0.32,-0.89,0.07
173952959,-0.31,-0.94,0.11
173954968,-0.31,-0.94,0.11
173956968,-0.31,-0.94,0.11
173959015,-0.31,-0.94,0.11
173960968,-0.31,-0.94,0.11
173963030,-0.29,-0.93,0.10
173965113,-0.29,-0.93,0.10
173967016,-0.29,-0.93,0.10
173969038,-0.29,-0.93,0.10
173971038,-0.29,-0.93,0.10
173973015,-0.30,-0.93,0.09
173975014,-0.30,-0.93,0.09
173977008,-0.30,-0.93,0.09
173979006,-0.30,-0.93,0.09
173980972,-0.30,-0.93,0.09
173982999,-0.31,-0.95,0.09
173984981,-0.31,-0.95,0.09
173987053,-0.31,-0.95,0.09
173989002,-0.31,-0.95,0.09
173991077,-0.31,-0.95,0.09
173992978,-0.28,-0.96,0.09
173994989,-0.28,-0.96,0.09
173996999,-0.28,-0.96,0.09
173999028,-0.28,-0.96,0.09
174000967,-0.28,-0.96,0.09
174003031,-0.28,-0.94,0.09
174005015,-0.28,-0.94,0.09
174007011,-0.28,-0.94,0.09
174009010,-0.28,-0.94,0.09
174011014,-0.28,-0.94,0.09
174013035,-0.28,-0.94,0.09
174015116,-0.29,-0.93,0.06
174017011,-0.29,-0.93,0.06
174018970,-0.29,-0.93,0.06
174020998,-0.29,-0.93,0.06
174023061,-0.29,-0.93,0.06
174024995,-0.29,-0.91,0.05
174026966,-0.29,-0.91,0.05
174028974,-0.29,-0.91,0.05
174031013,-0.29,-0.91,0.05
174032967,-0.29,-0.91,0.05
174034959,-0.29,-0.91,0.08
174036966,-0.29,-0.91,0.08
174038968,-0.29,-0.91,0.08
174041069,-0.29,-0.91,0.08
174043030,-0.29,-0.91,0.08
174045017,-0.27,-0.93,0.09
174047006,-0.27,-0.93,0.09
174049021,-0.27,-0.93,0.09
174051042,-0.27,-0.93,0.09
174053022,-0.27,-0.93,0.09
174055012,-0.28,-0.95,0.07
174057007,-0.28,-0.95,0.07
174059043,-0.28,-0.95,0.07
174061011,-0.28,-0.95,0.07
174062969,-0.28,-0.95,0.07
174065064,-0.30,-0.94,0.06
174066978,-0.30,-0.94,0.06
174068965,-0.30,-0.94,0.06
174070967,-0.30,-0.94,0.06
174072981,-0.30,-0.94,0.06
174075017,-0.30,-0.95,0.07
174076969,-0.30,-0.95,0.07
174078967,-0.30,-0.95,0.07
174080968,-0.30,-0.95,0.07
174083119,-0.30,-0.95,0.07
174085021,-0.30,-0.95,0.07
174087020,-0.29,-0.98,0.11
174089036,-0.29,-0.98,0.11
174091107,-0.29,-0.98,0.11
174093017,-0.29,-0.98,0.11
174095019,-0.29,-0.98,0.11
174097047,-0.28,-0.94,0.08
174099032,-0.28,-0.94,0.08
174101006,-0.28,-0.94,0.08
174102971,-0.28,-0.94,0.08
174104971,-0.28,-0.94,0.08
174106980,-0.29,-0.92,0.05
174109041,-0.29,-0.92,0.05
174110983,-0.29,-0.92,0.05
174112974,-0.29,-0.92,0.05
174115066,-0.29,-0.92,0.05
174116980,-0.29,-0.92,0.05
174119019,-0.29,-0.92,0.05
174120975,-0.29,-0.92,0.05
174123035,-0.29,-0.92,0.05
174125012,-0.29,-0.92,0.05
174127009,-0.29,-0.91,0.06
174129011,-0.29,-0.91,0.06
174131012,-0.29,-0.91,0.06
174133008,-0.29,-0.91,0.06
174135008,-0.29,-0.91,0.06
174136968,-0.29,-0.93,0.09
174138968,-0.29,-0.93,0.09
174141075,-0.29,-0.93,0.09
174142974,-0.29,-0.93,0.09
174144971,-0.29,-0.93,0.09
174146971,-0.28,-0.96,0.10
174148991,-0.28,-0.96,0.10
174151082,-0.28,-0.96,0.10
174152993,-0.28,-0.96,0.10
174154966,-0.28,-0.96,0.10
174156958,-0.29,-0.92,0.07
174158966,-0.29,-0.92,0.07
174160969,-0.29,-0.92,0.07
174163022,-0.29,-0.92,0.07
174165109,-0.29,-0.92,0.07
174167015,-0.29,-0.92,0.07
174169008,-0.27,-0.90,0.05
174171009,-0.27,-0.90,0.05
174173046,-0.27,-0.90,0.05
174175023,-0.27,-0.90,0.05
174177017,-0.27,-0.90,0.05
174178975,-0.27,-0.89,0.03
174180969,-0.27,-0.89,0.03
174183007,-0.27,-0.89,0.03
174184958,-0.27,-0.89,0.03
174187036,-0.27,-0.89,0.03
174189026,-0.27,-0.90,0.05
174191110,-0.27,-0.90,0.05
174192974,-0.27,-0.90,0.05
174194993,-0.27,-0.90,0.05
174196975,-0.27,-0.90,0.05
174198982,-0.28,-0.91,0.06
174201025,-0.28,-0.91,0.06
174203036,-0.28,-0.91,0.06
174205020,-0.28,-0.91,0.06
174207013,-0.28,-0.91,0.06
174209012,-0.31,-0.92,0.06
174211011,-0.31,-0.92,0.06
174213036,-0.31,-0.92,0.06
174215119,-0.31,-0.92,0.06
174217013,-0.31,-0.92,0.06
174218968,-0.29,-0.93,0.08
174220967,-0.29,-0.93,0.08
174222959,-0.29,-0.93,0.08
174224969,-0.29,-0.93,0.08
174226967,-0.29,-0.93,0.08
174228967,-0.28,-0.90,0.04
174230970,-0.28,-0.90,0.04
174232969,-0.28,-0.90,0.04
174234967,-0.28,-0.90,0.04
174236969,-0.28,-0.90,0.04
174238968,-0.28,-0.90,0.04
174241044,-0.27,-0.91,0.03
174243016,-0.27,-0.91,0.03
174245008,-0.27,-0.91,0.03
174247055,-0.27,-0.91,0.03
174249036,-0.27,-0.91,0.03
174251012,-0.29,-0.95,0.05
174253008,-0.29,-0.95,0.05
174255008,-0.29,-0.95,0.05
174257017,-0.29,-0.95,0.05
174259037,-0.29,-0.95,0.05
174260993,-0.30,-1.02,0.10
174262968,-0.30,-1.02,0.10
174265063,-0.30,-1.02,0.10
174266983,-0.30,-1.02,0.10
174269022,-0.30,-1.02,0.10
174270966,-0.28,-1.01,0.10
174272957,-0.28,-1.01,0.10
174274967,-0.28,-1.01,0.10
174276959,-0.28,-1.01,0.10
174278957,-0.28,-1.01,0.10
174280972,-0.27,-0.98,0.05
174283057,-0.27,-0.98,0.05
174285025,-0.27,-0.98,0.05
174287009,-0.27,-0.98,0.05
174289006,-0.27,-0.98,0.05
174291105,-0.26,-0.96,0.02
174293059,-0.26,-0.96,0.02
174295053,-0.26,-0.96,0.02
174297035,-0.26,-0.96,0.02
174299010,-0.26,-0.96,0.02
174301006,-0.25,-0.93,0.01
174302972,-0.25,-0.93,0.01
174304969,-0.25,-0.93,0.01
174307030,-0.25,-0.93,0.01
174308994,-0.25,-0.93,0.01
174310969,-0.25,-0.93,0.01
174313002,-0.25,-0.93,0.02
174315117,-0.25,-0.93,0.02
174316972,-0.25,-0.93,0.02
174318976,-0.25,-0.93,0.02
174320966,-0.25,-0.93,0.02
174323032,-0.25,-0.94,0.03
174325019,-0.25,-0.94,0.03
174327010,-0.25,-0.94,0.03
174329015,-0.25,-0.94,0.03
174331088,-0.25,-0.94,0.03
174333019,-0.26,-0.91,0.02
174335007,-0.26,-0.91,0.02
174337008,-0.26,-0.91,0.02
174338993,-0.26,-0.91,0.02
174341076,-0.26,-0.91,0.02
174342994,-0.27,-0.92,0.03
174345041,-0.27,-0.92,0.03
174346970,-0.27,-0.92,0.03
174348966,-0.27,-0.92,0.03
174350968,-0.27,-0.92,0.03
174353015,-0.26,-0.93,0.04
174355009,-0.26,-0.93,0.04
174356970,-0.26,-0.93,0.04
174358959,-0.26,-0.93,0.04
174360970,-0.26,-0.93,0.04
174363030,-0.27,-0.91,0.02
174365113,-0.27,-0.91,0.02
174367017,-0.27,-0.91,0.02
174369008,-0.27,-0.91,0.02
174371042,-0.27,-0.91,0.02
174373028,-0.28,-0.91,0.01
174375009,-0.28,-0.91,0.01
174377007,-0.28,-0.91,0.01
174379007,-0.28,-0.91,0.01
174381038,-0.28,-0.91,0.01
174383001,-0.26,-0.91,0.00
174384959,-0.26,-0.91,0.00
174386966,-0.26,-0.91,0.00
174388966,-0.26,-0.91,0.00
174391072,-0.26,-0.91,0.00
174392978,-0.26,-0.91,0.00
174394985,-0.25,-0.92,0.01
174396968,-0.25,-0.92,0.01
174398970,-0.25,-0.92,0.01
174400967,-0.25,-0.92,0.01
174403017,-0.25,-0.92,0.01
174405111,-0.28,-0.95,0.03
174407031,-0.28,-0.95,0.03
174409011,-0.28,-0.95,0.03
174411008,-0.28,-0.95,0.03
174413010,-0.28,-0.95,0.03
174415112,-0.28,-0.98,0.07
174417010,-0.28,-0.98,0.07
174418970,-0.28,-0.98,0.07
174420966,-0.28,-0.98,0.07
174422974,-0.28,-0.98,0.07
174424971,-0.26,-0.95,0.02
174426966,-0.26,-0.95,0.02
174428966,-0.26,-0.95,0.02
174430978,-0.26,-0.95,0.02
174433082,-0.26,-0.95,0.02
174434994,-0.25,-0.95,0.00
174436969,-0.25,-0.95,0.00
174438958,-0.25,-0.95,0.00
174441069,-0.25,-0.95,0.00
174443020,-0.25,-0.95,0.00
174445038,-0.25,-0.95,0.02
174447024,-0.25,-0.95,0.02
174449006,-0.25,-0.95,0.02
174451032,-0.25,-0.95,0.02
174453036,-0.25,-0.95,0.02
174455022,-0.25,-0.94,-0.00
174457015,-0.25,-0.94,-0.00
174459008,-0.25,-0.94,-0.00
174460967,-0.25,-0.94,-0.00
174462968,-0.25,-0.94,-0.00
174465062,-0.25,-0.94,-0.00
174467114,-0.25,-0.94,-0.01
174468994,-0.25,-0.94,-0.01
174470967,-0.25,-0.94,-0.01
174472967,-0.25,-0.94,-0.01
174474966,-0.25,-0.94,-0.01
174476972,-0.23,-0.95,0.00
174479014,-0.23,-0.95,0.00
174480977,-0.23,-0.95,0.00
174483130,-0.23,-0.95,0.00
174485020,-0.23,-0.95,0.00
174487009,-0.22,-0.95,-0.00
174489010,-0.22,-0.95,-0.00
174491109,-0.22,-0.95,-0.00
174493041,-0.22,-0.95,-0.00
174495045,-0.22,-0.95,-0.00
174497025,-0.21,-0.95,-0.07
174499039,-0.21,-0.95,-0.07
174501002,-0.21,-0.95,-0.07
174502966,-0.21,-0.95,-0.07
174504973,-0.21,-0.95,-0.07
174506967,-0.21,-0.96,0.02
174508969,-0.21,-0.96,0.02
174510970,-0.21,-0.96,0.02
174512968,-0.21,-0.96,0.02
174515063,-0.21,-0.96,0.02
174516971,-0.23,-0.95,0.01
174518969,-0.23,-0.95,0.01
174520970,-0.23,-0.95,0.01
174523017,-0.23,-0.95,0.01
174525009,-0.23,-0.95,0.01
174527007,-0.24,-0.95,0.01
174529006,-0.24,-0.95,0.01
174531009,-0.24,-0.95,0.01
174533003,-0.24,-0.95,0.01
174534973,-0.24,-0.95,0.01
174536970,-0.24,-0.95,0.01
174538970,-0.23,-0.96,-0.00
174541050,-0.23,-0.96,-0.00
174542971,-0.23,-0.96,-0.00
174544966,-0.23,-0.96,-0.00
174546969,-0.23,-0.96,-0.00
174548966,-0.21,-0.96,-0.02
174550967,-0.21,-0.96,-0.02
174552966,-0.21,-0.96,-0.02
174554966,-0.21,-0.96,-0.02
174556968,-0.21,-0.96,-0.02
174558971,-0.21,-0.95,-0.05
174560966,-0.21,-0.95,-0.05
174563012,-0.21,-0.95,-0.05
174565089,-0.21,-0.95,-0.05
174567011,-0.21,-0.95,-0.05
174569030,-0.22,-0.95,-0.03
174571135,-0.22,-0.95,-0.03
174573030,-0.22,-0.95,-0.03
174575018,-0.22,-0.95,-0.03
174577006,-0.22,-0.95,-0.03
174578968,-0.23,-0.95,-0.04
174580969,-0.23,-0.95,-0.04
174583006,-0.23,-0.95,-0.04
174584967,-0.23,-0.95,-0.04
174586988,-0.23,-0.95,-0.04
174588978,-0.20,-0.95,-0.02
174591074,-0.20,-0.95,-0.02
174592976,-0.20,-0.95,-0.02
174594987,-0.20,-0.95,-0.02
174597058,-0.20,-0.95,-0.02
174599005,-0.20,-0.95,-0.05
174601006,-0.20,-0.95,-0.05
174603021,-0.20,-0.95,-0.05
174605009,-0.20,-0.95,-0.05
174607046,-0.20,-0.95,-0.05
174609037,-0.19,-0.96,-0.05
174611011,-0.19,-0.96,-0.05
174613006,-0.19,-0.96,-0.05
174615106,-0.19,-0.96,-0.05
174617013,-0.19,-0.96,-0.05
174618997,-0.19,-0.96,-0.05
174621079,-0.19,-0.95,-0.07
174622992,-0.19,-0.95,-0.07
174624966,-0.19,-0.95,-0.07
174626959,-0.19,-0.95,-0.07
174628976,-0.19,-0.95,-0.07
174631013,-0.19,-0.96,-0.09
174632970,-0.19,-0.96,-0.09
174634959,-0.19,-0.96,-0.09
174636966,-0.19,-0.96,-0.09
174638967,-0.19,-0.96,-0.09
174641073,-0.19,-0.95,-0.08
174643042,-0.19,-0.95,-0.08
174645019,-0.19,-0.95,-0.08
174647011,-0.19,-0.95,-0.08
174649010,-0.19,-0.95,-0.08
174651031,-0.18,-0.94,-0.09
174653045,-0.18,-0.94,-0.09
174655020,-0.18,-0.94,-0.09
174657007,-0.18,-0.94,-0.09
174659005,-0.18,-0.94,-0.09
174660980,-0.18,-0.94,-0.09
174663047,-0.18,-0.94,-0.09
174665081,-0.18,-0.94,-0.09
174666970,-0.18,-0.94,-0.09
174668968,-0.18,-0.94,-0.09
174670967,-0.17,-0.96,-0.10
174672966,-0.17,-0.96,-0.10
174674965,-0.17,-0.96,-0.10
174676969,-0.17,-0.96,-0.10
174678983,-0.17,-0.96,-0.10
174681021,-0.16,-0.95,-0.06
174683050,-0.16,-0.95,-0.06
174685024,-0.16,-0.95,-0.06
174687011,-0.16,-0.95,-0.06
174689011,-0.16,-0.95,-0.06
174691187,-0.14,-0.95,-0.12
174693035,-0.14,-0.95,-0.12
174695018,-0.14,-0.95,-0.12
174697012,-0.14,-0.95,-0.12
174699007,-0.14,-0.95,-0.12
174700969,-0.14,-0.95,-0.12
174703164,-0.15,-0.94,-0.16
174705019,-0.15,-0.94,-0.16
174706976,-0.15,-0.94,-0.16
174709038,-0.15,-0.94,-0.16
174711018,-0.15,-0.94,-0.16
174712975,-0.14,-0.96,-0.16
174715068,-0.14,-0.96,-0.16
174716983,-0.14,-0.96,-0.16
174718972,-0.14,-0.96,-0.16
174720986,-0.14,-0.96,-0.16
174723050,-0.14,-0.96,-0.16
174725036,-0.14,-0.96,-0.16
174727016,-0.14,-0.96,-0.16
174729015,-0.14,-0.96,-0.16
174731020,-0.14,-0.96,-0.16
174733053,-0.14,-0.93,-0.14
174735027,-0.14,-0.93,-0.14
174737011,-0.14,-0.93,-0.14
174739010,-0.14,-0.93,-0.14
174741075,-0.14,-0.93,-0.14
174742976,-0.12,-0.94,-0.25
174744972,-0.12,-0.94,-0.25
174746969,-0.12,-0.94,-0.25
174748971,-0.12,-0.94,-0.25
174750969,-0.12,-0.94,-0.25
174752971,-0.11,-0.88,-0.29
174754970,-0.11,-0.88,-0.29
174756970,-0.11,-0.88,-0.29
174758971,-0.11,-0.88,-0.29
174760976,-0.11,-0.88,-0.29
174763016,-0.11,-0.88,-0.29
174765130,-0.12,-0.93,-0.14
174767034,-0.12,-0.93,-0.14
174769016,-0.12,-0.93,-0.14
174771014,-0.12,-0.93,-0.14
174773020,-0.12,-0.93,-0.14
174775036,-0.11,-0.89,-0.17
174777019,-0.11,-0.89,-0.17
174779013,-0.11,-0.89,-0.17
174780978,-0.11,-0.89,-0.17
174783015,-0.11,-0.89,-0.17
174785035,-0.10,-0.98,-0.25
174786999,-0.10,-0.98,-0.25
174788972,-0.10,-0.98,-0.25
174791080,-0.10,-0.98,-0.25
174792977,-0.10,-0.98,-0.25
174794989,-0.06,-0.99,-0.18
174796974,-0.06,-0.99,-0.18
174798976,-0.06,-0.99,-0.18
174800981,-0.06,-0.99,-0.18
174803046,-0.06,-0.99,-0.18
174805028,-0.04,-0.96,-0.28
174807033,-0.04,-0.96,-0.28
174809013,-0.04,-0.96,-0.28
174811012,-0.04,-0.96,-0.28
174813034,-0.04,-0.96,-0.28
174815121,-0.05,-0.88,-0.38
174817031,-0.05,-0.88,-0.38
174819015,-0.05,-0.88,-0.38
174821012,-0.05,-0.88,-0.38
174822978,-0.05,-0.88,-0.38
174824991,-0.07,-0.90,-0.37
174826972,-0.07,-0.90,-0.37
174828969,-0.07,-0.90,-0.37
174830976,-0.07,-0.90,-0.37
174832975,-0.07,-0.90,-0.37
174834973,-0.07,-0.90,-0.37
174836976,-0.10,-0.96,-0.20
174838980,-0.10,-0.96,-0.20
174841055,-0.10,-0.96,-0.20
174843019,-0.10,-0.96,-0.20
174845017,-0.10,-0.96,-0.20
174847018,-0.12,-0.91,-0.28
174849017,-0.12,-0.91,-0.28
174851019,-0.12,-0.91,-0.28
174853012,-0.12,-0.91,-0.28
174854978,-0.12,-0.91,-0.28
174856978,-0.13,-0.90,-0.33
174858976,-0.13,-0.90,-0.33
174860975,-0.13,-0.90,-0.33
174862978,-0.13,-0.90,-0.33
174865129,-0.13,-0.90,-0.33
174867005,-0.09,-0.95,-0.33
174868973,-0.09,-0.95,-0.33
174870980,-0.09,-0.95,-0.33
174872971,-0.09,-0.95,-0.33
174874974,-0.09,-0.95,-0.33
174876998,-0.05,-0.92,-0.35
174879018,-0.05,-0.92,-0.35
174880979,-0.05,-0.92,-0.35
174883049,-0.05,-0.92,-0.35
174885035,-0.05,-0.92,-0.35
174887018,-0.00,-0.91,-0.35
174889017,-0.00,-0.91,-0.35
174891152,-0.00,-0.91,-0.35
174893034,-0.00,-0.91,-0.35
174895019,-0.00,-0.91,-0.35
174897013,-0.04,-0.89,-0.34
174899014,-0.04,-0.89,-0.34
174901130,-0.04,-0.89,-0.34
174903001,-0.04,-0.89,-0.34
174904978,-0.04,-0.89,-0.34
174906996,-0.02,-0.91,-0.37
174908970,-0.02,-0.91,-0.37
174910971,-0.02,-0.91,-0.37
174912970,-0.02,-0.91,-0.37
174915067,-0.02,-0.91,-0.37
174917035,-0.02,-0.91,-0.37
174919001,-0.04,-0.89,-0.38
174920970,-0.04,-0.89,-0.38
174923028,-0.04,-0.89,-0.38
174925015,-0.04,-0.89,-0.38
174927012,-0.04,-0.89,-0.38
174929029,-0.03,-0.92,-0.40
174931041,-0.03,-0.92,-0.40
174933017,-0.03,-0.92,-0.40
174935016,-0.03,-0.92,-0.40
174937013,-0.03,-0.92,-0.40
174938980,-0.00,-0.90,-0.42
174941078,-0.00,-0.90,-0.42
174943033,-0.00,-0.90,-0.42
174945023,-0.00,-0.90,-0.42
174946979,-0.00,-0.90,-0.42
174948980,0.03,-0.93,-0.44
174950972,0.03,-0.93,-0.44
174952971,0.03,-0.93,-0.44
174954982,0.03,-0.93,-0.44
174957019,0.03,-0.93,-0.44
174958980,0.05,-0.91,-0.47
174960970,0.05,-0.91,-0.47
174963033,0.05,-0.91,-0.47
174965118,0.05,-0.91,-0.47
174967018,0.05,-0.91,-0.47
174969012,0.05,-0.88,-0.49
174971070,0.05,-0.88,-0.49
174973031,0.05,-0.88,-0.49
174975012,0.05,-0.88,-0.49
174977016,0.05,-0.88,-0.49
174979018,0.06,-0.92,-0.50
174981032,0.06,-0.92,-0.50
174983013,0.06,-0.92,-0.50
174984972,0.06,-0.92,-0.50
174986975,0.06,-0.92,-0.50
174989018,0.06,-0.92,-0.50
174991107,0.02,-0.91,-0.45
174992978,0.02,-0.91,-0.45
174994986,0.02,-0.91,-0.45
174996979,0.02,-0.91,-0.45
174998978,0.02,-0.91,-0.45
175000971,0.00,-0.86,-0.38
175003024,0.00,-0.86,-0.38
175005012,0.00,-0.86,-0.38
175007012,0.00,-0.86,-0.38
175009014,0.00,-0.86,-0.38
175011045,-0.04,-0.89,-0.39
175013040,-0.04,-0.89,-0.39
175015120,-0.04,-0.89,-0.39
175017016,-0.04,-0.89,-0.39
175019015,-0.04,-0.89,-0.39
175021015,0.00,-0.92,-0.38
175023038,0.00,-0.92,-0.38
175024974,0.00,-0.92,-0.38
175026981,0.00,-0.92,-0.38
175028971,0.00,-0.92,-0.38
175030975,0.05,-0.92,-0.38
175032981,0.05,-0.92,-0.38
175035023,0.05,-0.92,-0.38
175036999,0.05,-0.92,-0.38
175038970,0.05,-0.92,-0.38
175041069,0.04,-0.89,-0.41
175043047,0.04,-0.89,-0.41
175045015,0.04,-0.89,-0.41
175047022,0.04,-0.89,-0.41
175049016,0.04,-0.89,-0.41
175051051,0.01,-0.86,-0.39
175053017,0.01,-0.86,-0.39
175055016,0.01,-0.86,-0.39
175057016,0.01,-0.86,-0.39
175058999,0.01,-0.86,-0.39
175060981,0.01,-0.86,-0.39
175063036,-0.04,-0.89,-0.31
175065119,-0.04,-0.89,-0.31
175066981,-0.04,-0.89,-0.31
175068969,-0.04,-0.89,-0.31
175070970,-0.04,-0.89,-0.31
175073026,-0.04,-0.89,-0.34
175074976,-0.04,-0.89,-0.34
175076970,-0.04,-0.89,-0.34
175078974,-0.04,-0.89,-0.34
175080973,-0.04,-0.89,-0.34
175083052,-0.03,-0.91,-0.37
175085028,-0.03,-0.91,-0.37
175087015,-0.03,-0.91,-0.37
175089012,-0.03,-0.91,-0.37
175091116,-0.03,-0.91,-0.37
175093057,-0.02,-0.91,-0.37
175095034,-0.02,-0.91,-0.37
175097014,-0.02,-0.91,-0.37
175099010,-0.02,-0.91,-0.37
175100979,-0.02,-0.91,-0.37
175102997,-0.02,-0.92,-0.41
175105052,-0.02,-0.92,-0.41
175106980,-0.02,-0.92,-0.41
175108992,-0.02,-0.92,-0.41
175110996,-0.02,-0.92,-0.41
175113015,-0.02,-0.91,-0.40
175115075,-0.02,-0.91,-0.40
175116971,-0.02,-0.91,-0.40
175118969,-0.02,-0.91,-0.40
175120968,-0.02,-0.91,-0.40
175123016,-0.02,-0.91,-0.38
175125007,-0.02,-0.91,-0.38
175127044,-0.02,-0.91,-0.38
175129032,-0.02,-0.91,-0.38
175131018,-0.02,-0.91,-0.38
175133010,-0.02,-0.91,-0.38
175135007,-0.03,-0.90,-0.38
175137007,-0.03,-0.90,-0.38
175138969,-0.03,-0.90,-0.38
175141077,-0.03,-0.90,-0.38
175142969,-0.03,-0.90,-0.38
175144971,-0.03,-0.90,-0.35
175146969,-0.03,-0.90,-0.35
175148969,-0.03,-0.90,-0.35
175150967,-0.03,-0.90,-0.35
175152979,-0.03,-0.90,-0.35
175155059,-0.04,-0.90,-0.35
175156994,-0.04,-0.90,-0.35
175158959,-0.04,-0.90,-0.35
175160958,-0.04,-0.90,-0.35
175163022,-0.04,-0.90,-0.35
175165127,-0.03,-0.90,-0.36
175167023,-0.03,-0.90,-0.36
175169020,-0.03,-0.90,-0.36
175171020,-0.03,-0.90,-0.36
175173042,-0.03,-0.90,-0.36
175175020,-0.02,-0.91,-0.38
175177008,-0.02,-0.91,-0.38
175179008,-0.02,-0.91,-0.38
175180971,-0.02,-0.91,-0.38
175183008,-0.02,-0.91,-0.38
175185049,-0.02,-0.92,-0.39
175187007,-0.02,-0.92,-0.39
175188970,-0.02,-0.92,-0.39
175191087,-0.02,-0.92,-0.39
175193001,-0.02,-0.92,-0.39
175195022,-0.02,-0.91,-0.40
175196975,-0.02,-0.91,-0.40
175198968,-0.02,-0.91,-0.40
175200970,-0.02,-0.91,-0.40
175203029,-0.02,-0.91,-0.40
175205013,-0.02,-0.91,-0.39
175207011,-0.02,-0.91,-0.39
175209015,-0.02,-0.91,-0.39
175211051,-0.02,-0.91,-0.39
175213040,-0.02,-0.91,-0.39
175215129,-0.02,-0.91,-0.39
175217017,-0.02,-0.91,-0.39
175219010,-0.02,-0.91,-0.39
175220968,-0.02,-0.91,-0.39
175222967,-0.02,-0.91,-0.39
175224975,-0.02,-0.91,-0.39
175227047,-0.03,-0.90,-0.38
175228990,-0.03,-0.90,-0.38
175230967,-0.03,-0.90,-0.38
175232966,-0.03,-0.90,-0.38
175234967,-0.03,-0.90,-0.38
175237019,-0.03,-0.90,-0.37
175238968,-0.03,-0.90,-0.37
175241072,-0.03,-0.90,-0.37
175243032,-0.03,-0.90,-0.37
175245018,-0.03,-0.90,-0.37
175247011,-0.03,-0.90,-0.36
175249028,-0.03,-0.90,-0.36
175251039,-0.03,-0.90,-0.36
175253025,-0.03,-0.90,-0.36
175255016,-0.03,-0.90,-0.36
175257015,-0.03,-0.90,-0.37
175259041,-0.03,-0.90,-0.37
175261013,-0.03,-0.90,-0.37
175262967,-0.03,-0.90,-0.37
175265062,-0.03,-0.90,-0.37
175266977,-0.03,-0.90,-0.38
175268966,-0.03,-0.90,-0.38
175270959,-0.03,-0.90,-0.38
175272975,-0.03,-0.90,-0.38
175275018,-0.03,-0.90,-0.38
175276969,-0.02,-0.91,-0.39
175278968,-0.02,-0.91,-0.39
175280969,-0.02,-0.91,-0.39
175283129,-0.02,-0.91,-0.39
175285020,-0.02,-0.91,-0.39
175287006,-0.02,-0.91,-0.39
175289019,-0.02,-0.91,-0.39
175291181,-0.02,-0.91,-0.39
175293020,-0.02,-0.91,-0.39
175295016,-0.02,-0.91,-0.39
175297015,-0.02,-0.91,-0.39
175299009,-0.02,-0.91,-0.39
175300969,-0.02,-0.91,-0.39
175303003,-0.02,-0.91,-0.39
175305041,-0.02,-0.91,-0.39
175306985,-0.02,-0.91,-0.39
175308980,-0.02,-0.90,-0.39
175310968,-0.02,-0.90,-0.39
175312980,-0.02,-0.90,-0.39
175315125,-0.02,-0.90,-0.39
175317006,-0.02,-0.90,-0.39
175318983,-0.02,-0.90,-0.38
175320969,-0.02,-0.90,-0.38
175323033,-0.02,-0.90,-0.38
175325018,-0.02,-0.90,-0.38
175327009,-0.02,-0.90,-0.38
175329005,-0.03,-0.90,-0.38
175331010,-0.03,-0.90,-0.38
175333016,-0.03,-0.90,-0.38
175335035,-0.03,-0.90,-0.38
175337013,-0.03,-0.90,-0.38
175338970,-0.02,-0.90,-0.38
175341076,-0.02,-0.90,-0.38
175342975,-0.02,-0.90,-0.38
175345036,-0.02,-0.90,-0.38
175347017,-0.02,-0.90,-0.38
175348974,-0.02,-0.90,-0.39
175350968,-0.02,-0.90,-0.39
175353023,-0.02,-0.90,-0.39
175354993,-0.02,-0.90,-0.39
175356970,-0.02,-0.90,-0.39
175358966,-0.02,-0.90,-0.39
175360967,-0.02,-0.90,-0.39
175363029,-0.02,-0.90,-0.39
175365117,-0.02,-0.90,-0.39
175367019,-0.02,-0.90,-0.39
175369037,-0.02,-0.90,-0.39
175371039,-0.02,-0.91,-0.39
175373029,-0.02,-0.91,-0.39
175375020,-0.02,-0.91,-0.39
175377009,-0.02,-0.91,-0.39
175379043,-0.02,-0.91,-0.39
175381015,-0.02,-0.90,-0.39
175383006,-0.02,-0.90,-0.39
175384967,-0.02,-0.90,-0.39
175386969,-0.02,-0.90,-0.39
175388967,-0.02,-0.90,-0.39
175391078,-0.03,-0.90,-0.39
175392979,-0.03,-0.90,-0.39
175394988,-0.03,-0.90,-0.39
175396968,-0.03,-0.90,-0.39
175398979,-0.03,-0.90,-0.39
175401020,-0.02,-0.90,-0.38
175403032,-0.02,-0.90,-0.38
175405012,-0.02,-0.90,-0.38
175407006,-0.02,-0.90,-0.38
175409010,-0.02,-0.90,-0.38
175411015,-0.02,-0.90,-0.39
175413037,-0.02,-0.90,-0.39
175415121,-0.02,-0.90,-0.39
175417020,-0.02,-0.90,-0.39
175418971,-0.02,-0.90,-0.39
175421013,-0.02,-0.90,-0.39
175422978,-0.02,-0.90,-0.39
175424971,-0.02,-0.90,-0.39
175426969,-0.02,-0.90,-0.39
175428971,-0.02,-0.90,-0.39
175430969,-0.02,-0.90,-0.39
175432973,-0.02,-0.91,-0.38
175434976,-0.02,-0.91,-0.38
175436968,-0.02,-0.91,-0.38
175438967,-0.02,-0.91,-0.38
175441058,-0.02,-0.91,-0.38
175443018,-0.02,-0.90,-0.40
175445017,-0.02,-0.90,-0.40
175447009,-0.02,-0.90,-0.40
175449007,-0.02,-0.90,-0.40
175451044,-0.02,-0.90,-0.40
175453027,-0.02,-0.90,-0.39
175455016,-0.02,-0.90,-0.39
175457009,-0.02,-0.90,-0.39
175458969,-0.02,-0.90,-0.39
175460969,-0.02,-0.90,-0.39
175463034,-0.02,-0.90,-0.39
175465115,-0.02,-0.90,-0.39
175466975,-0.02,-0.90,-0.39
175468967,-0.02,-0.90,-0.39
175470978,-0.02,-0.90,-0.39
175473017,-0.02,-0.89,-0.38
175474968,-0.02,-0.89,-0.38
175476967,-0.02,-0.89,-0.38
175478959,-0.02,-0.89,-0.38
175480967,-0.02,-0.89,-0.38
175483133,-0.02,-0.90,-0.39
175485020,-0.02,-0.90,-0.39
175487007,-0.02,-0.90,-0.39
175489027,-0.02,-0.90,-0.39
175491145,-0.02,-0.90,-0.39
175493017,-0.02,-0.90,-0.39
175495016,-0.02,-0.90,-0.39
175497011,-0.02,-0.90,-0.39
175499007,-0.02,-0.90,-0.39
175500974,-0.02,-0.90,-0.39
175502982,-0.02,-0.90,-0.39
175505069,-0.02,-0.90,-0.39
175506998,-0.02,-0.90,-0.39
175508969,-0.02,-0.90,-0.39
175510966,-0.02,-0.90,-0.39
175512980,-0.02,-0.90,-0.39
175515117,-0.02,-0.91,-0.39
175516971,-0.02,-0.91,-0.39
175518966,-0.02,-0.91,-0.39
175520969,-0.02,-0.91,-0.39
175523053,-0.02,-0.91,-0.39
175525031,-0.03,-0.89,-0.38
175527009,-0.03,-0.89,-0.38
175529007,-0.03,-0.89,-0.38
175531038,-0.03,-0.89,-0.38
175533035,-0.03,-0.89,-0.38
175535017,-0.02,-0.90,-0.39
175537011,-0.02,-0.90,-0.39
175539010,-0.02,-0.90,-0.39
175541072,-0.02,-0.90,-0.39
175542969,-0.02,-0.90,-0.39
175544982,-0.02,-0.90,-0.39
175547052,-0.02,-0.90,-0.39
175548971,-0.02,-0.90,-0.39
175550974,-0.02,-0.90,-0.39
175552966,-0.02,-0.90,-0.39
175555021,-0.02,-0.90,-0.39
175557002,-0.02,-0.90,-0.39
175558969,-0.02,-0.90,-0.39
175560959,-0.02,-0.90,-0.39
175563028,-0.02,-0.90,-0.39
175565115,-0.02,-0.90,-0.39
175567011,-0.02,-0.90,-0.39
175569008,-0.02,-0.90,-0.39
175571048,-0.02,-0.90,-0.39
175573038,-0.02,-0.90,-0.39
175575018,-0.02,-0.90,-0.40
175577009,-0.02,-0.90,-0.40
175579006,-0.02,-0.90,-0.40
175581021,-0.02,-0.90,-0.40
175583036,-0.02,-0.90,-0.40
175585005,-0.02,-0.90,-0.40
175586988,-0.02,-0.89,-0.39
175588965,-0.02,-0.89,-0.39
175591125,-0.02,-0.89,-0.39
175592977,-0.02,-0.89,-0.39
175594988,-0.02,-0.89,-0.39
175596967,-0.05,-0.91,-0.39
175598970,-0.05,-0.91,-0.39
175600972,-0.05,-0.91,-0.39
175603029,-0.05,-0.91,-0.39
175605016,-0.05,-0.91,-0.39
175607010,-0.04,-0.90,-0.38
175609012,-0.04,-0.90,-0.38
175611039,-0.04,-0.90,-0.38
175613019,-0.04,-0.90,-0.38
175615108,-0.04,-0.90,-0.38
175617015,-0.03,-0.89,-0.38
175619003,-0.03,-0.89,-0.38
175620975,-0.03,-0.89,-0.38
175622994,-0.03,-0.89,-0.38
175625054,-0.03,-0.89,-0.38
175627007,-0.04,-0.90,-0.39
175628968,-0.04,-0.90,-0.39
175630968,-0.04,-0.90,-0.39
175632966,-0.04,-0.90,-0.39
175635020,-0.04,-0.90,-0.39
175636977,-0.04,-0.90,-0.39
175638974,-0.04,-0.90,-0.39
175641074,-0.04,-0.90,-0.39
175643052,-0.04,-0.90,-0.39
175645017,-0.04,-0.90,-0.39
175647013,-0.03,-0.91,-0.38
175649021,-0.03,-0.91,-0.38
175651038,-0.03,-0.91,-0.38
175653027,-0.03,-0.91,-0.38
175655007,-0.03,-0.91,-0.38
175657006,-0.03,-0.91,-0.38
175658998,0.00,-0.89,-0.40
175660966,0.00,-0.89,-0.40
175663025,0.00,-0.89,-0.40
175665123,0.00,-0.89,-0.40
175666979,0.00,-0.89,-0.40
175668967,0.00,-0.89,-0.41
175670968,0.00,-0.89,-0.41
175673016,0.00,-0.89,-0.41
175674971,0.00,-0.89,-0.41
175676966,0.00,-0.89,-0.41
175678968,-0.00,-0.90,-0.41
175680967,-0.00,-0.90,-0.41
175683029,-0.00,-0.90,-0.41
175685025,-0.00,-0.90,-0.41
175687009,-0.00,-0.90,-0.41
175689008,0.00,-0.89,-0.42
175691146,0.00,-0.89,-0.42
175693033,0.00,-0.89,-0.42
175695016,0.00,-0.89,-0.42
175697009,0.00,-0.89,-0.42
175699019,-0.00,-0.89,-0.40
175701034,-0.00,-0.89,-0.40
175703010,-0.00,-0.89,-0.40
175704965,-0.00,-0.89,-0.40
175706966,-0.00,-0.89,-0.40
175708966,-0.02,-0.90,-0.39
175711026,-0.02,-0.90,-0.39
175712991,-0.02,-0.90,-0.39
175715062,-0.02,-0.90,-0.39
175716983,-0.02,-0.90,-0.39
175718966,-0.02,-0.89,-0.39
175720959,-0.02,-0.89,-0.39
175723037,-0.02,-0.89,-0.39
175725016,-0.02,-0.89,-0.39
175727020,-0.02,-0.89,-0.39
175729035,-0.01,-0.89,-0.40
175731013,-0.01,-0.89,-0.40
175733010,-0.01,-0.89,-0.40
175735009,-0.01,-0.89,-0.40
175736966,-0.01,-0.89,-0.40
175738971,-0.01,-0.89,-0.40
175741066,-0.02,-0.90,-0.40
175742969,-0.02,-0.90,-0.40
175744974,-0.02,-0.90,-0.40
175747039,-0.02,-0.90,-0.40
175749013,-0.02,-0.90,-0.40
175750969,-0.01,-0.90,-0.40
175752969,-0.01,-0.90,-0.40
175754967,-0.01,-0.90,-0.40
175756965,-0.01,-0.90,-0.40
175759016,-0.01,-0.90,-0.40
175760969,-0.01,-0.89,-0.40
175763028,-0.01,-0.89,-0.40
175765115,-0.01,-0.89,-0.40
175767017,-0.01,-0.89,-0.40
175769034,-0.01,-0.89,-0.40
175771033,-0.02,-0.89,-0.40
175773021,-0.02,-0.89,-0.40
175775009,-0.02,-0.89,-0.40
175777009,-0.02,-0.89,-0.40
175779012,-0.02,-0.89,-0.40
175780969,-0.02,-0.90,-0.39
175783044,-0.02,-0.90,-0.39
175785019,-0.02,-0.90,-0.39
175786974,-0.02,-0.90,-0.39
175788970,-0.02,-0.90,-0.39
175791075,-0.02,-0.90,-0.39
175792981,-0.02,-0.90,-0.39
175795024,-0.02,-0.90,-0.39
175796971,-0.02,-0.90,-0.39
175798968,-0.02,-0.90,-0.39
175800958,-0.02,-0.90,-0.40
175803029,-0.02,-0.90,-0.40
175805015,-0.02,-0.90,-0.40
175807009,-0.02,-0.90,-0.40
175809009,-0.02,-0.90,-0.40
175811039,-0.02,-0.90,-0.40
175813023,-0.02,-0.90,-0.40
175815116,-0.02,-0.90,-0.40
175817013,-0.02,-0.90,-0.40
175818975,-0.02,-0.90,-0.40
175820970,-0.02,-0.90,-0.40
175822977,-0.02,-0.90,-0.40
175825035,-0.02,-0.90,-0.40
175827015,-0.02,-0.90,-0.40
175829007,-0.02,-0.90,-0.40
175830968,-0.02,-0.90,-0.40
175832966,-0.02,-0.90,-0.39
175834971,-0.02,-0.90,-0.39
175837018,-0.02,-0.90,-0.39
175838971,-0.02,-0.90,-0.39
175841073,-0.02,-0.90,-0.39
175843057,-0.02,-0.90,-0.39
175845015,-0.02,-0.90,-0.39
175847010,-0.02,-0.90,-0.39
175849024,-0.02,-0.90,-0.39
175851077,-0.02,-0.90,-0.39
175853026,-0.02,-0.90,-0.40
175855007,-0.02,-0.90,-0.40
175857008,-0.02,-0.90,-0.40
175859000,-0.02,-0.90,-0.40
175860968,-0.02,-0.90,-0.40
175862968,-0.01,-0.90,-0.40
175865063,-0.01,-0.90,-0.40
175866982,-0.01,-0.90,-0.40
175869013,-0.01,-0.90,-0.40
175871033,-0.01,-0.90,-0.40
175872968,-0.02,-0.89,-0.40
175874967,-0.02,-0.89,-0.40
175876969,-0.02,-0.89,-0.40
175878969,-0.02,-0.89,-0.40
175880969,-0.02,-0.89,-0.40
175883019,-0.02,-0.89,-0.40
175885022,-0.02,-0.89,-0.40
175887049,-0.02,-0.89,-0.40
175889029,-0.02,-0.89,-0.40
175891116,-0.02,-0.89,-0.40
175893015,-0.02,-0.89,-0.40
175895020,-0.01,-0.89,-0.39
175897010,-0.01,-0.89,-0.39
175898987,-0.01,-0.89,-0.39
175900968,-0.01,-0.89,-0.39
175902970,-0.01,-0.89,-0.39
175904967,-0.01,-0.89,-0.39
175906970,-0.01,-0.89,-0.39
175909019,-0.01,-0.89,-0.39
175911043,-0.01,-0.89,-0.39
175912978,-0.01,-0.89,-0.39
175915068,-0.01,-0.89,-0.40
175916979,-0.01,-0.89,-0.40
175918982,-0.01,-0.89,-0.40
175921015,-0.01,-0.89,-0.40
175923031,-0.01,-0.89,-0.40
175925011,-0.01,-0.89,-0.40
175927005,-0.01,-0.89,-0.40
175929009,-0.01,-0.89,-0.40
175931036,-0.01,-0.89,-0.40
175933049,-0.01,-0.89,-0.40
175935035,-0.01,-0.89,-0.41
175937011,-0.01,-0.89,-0.41
175939007,-0.01,-0.89,-0.41
175941077,-0.01,-0.89,-0.41
175942970,-0.01,-0.89,-0.41
175944967,-0.01,-0.89,-0.40
175946969,-0.01,-0.89,-0.40
175948970,-0.01,-0.89,-0.40
175951004,-0.01,-0.89,-0.40
175953039,-0.01,-0.89,-0.40
175954988,-0.01,-0.89,-0.40
175956969,-0.01,-0.89,-0.41
175958967,-0.01,-0.89,-0.41
175960967,-0.01,-0.89,-0.41
175963021,-0.01,-0.89,-0.41
175965127,-0.01,-0.89,-0.41
175967028,-0.01,-0.89,-0.40
175969010,-0.01,-0.89,-0.40
175971013,-0.01,-0.89,-0.40
175973040,-0.01,-0.89,-0.40
175975019,-0.01,-0.89,-0.40
175977007,-0.02,-0.89,-0.40
175979008,-0.02,-0.89,-0.40
175981049,-0.02,-0.89,-0.40
175983000,-0.02,-0.89,-0.40
175985007,-0.02,-0.89,-0.40
175986968,-0.02,-0.89,-0.40
175988967,-0.02,-0.89,-0.40
175991075,-0.02,-0.89,-0.40
175992973,-0.02,-0.89,-0.40
175995034,-0.02,-0.89,-0.40
175996997,-0.01,-0.90,-0.41
175998957,-0.01,-0.90,-0.41
176000958,-0.01,-0.90,-0.41
176003034,-0.01,-0.90,-0.41
176005011,-0.01,-0.90,-0.41
176007008,-0.02,-0.90,-0.40
176009004,-0.02,-0.90,-0.40
176011041,-0.02,-0.90,-0.40
176013018,-0.02,-0.90,-0.40
176015107,-0.02,-0.90,-0.40
176017016,-0.02,-0.89,-0.41
176018970,-0.02,-0.89,-0.41
176020968,-0.02,-0.89,-0.41
176022970,-0.02,-0.89,-0.41
176024968,-0.02,-0.89,-0.41
176026968,-0.02,-0.89,-0.41
176028975,-0.02,-0.89,-0.41
176030978,-0.02,-0.89,-0.41
176032971,-0.02,-0.89,-0.41
176034968,-0.02,-0.89,-0.41
176036974,-0.02,-0.89,-0.41
176038977,-0.02,-0.89,-0.41
176041047,-0.02,-0.89,-0.41
176043012,-0.02,-0.89,-0.41
176045056,-0.02,-0.89,-0.41
176047032,-0.02,-0.89,-0.41
176049011,-0.02,-0.89,-0.40
176051009,-0.02,-0.89,-0.40
176053007,-0.02,-0.89,-0.40
176055009,-0.02,-0.89,-0.40
176057007,-0.02,-0.89,-0.40
176058979,-0.02,-0.89,-0.40
176061043,-0.02,-0.89,-0.40
176062985,-0.02,-0.89,-0.40
176065064,-0.02,-0.89,-0.40
176066979,-0.02,-0.89,-0.40
176068967,-0.02,-0.90,-0.40
176070969,-0.02,-0.90,-0.40
176072972,-0.02,-0.90,-0.40
176074977,-0.02,-0.90,-0.40
176076974,-0.02,-0.90,-0.40
176078973,-0.01,-0.90,-0.40
176081009,-0.01,-0.90,-0.40
176083050,-0.01,-0.90,-0.40
176085044,-0.01,-0.90,-0.40
176087017,-0.01,-0.90,-0.40
176089008,-0.01,-0.89,-0.41
176091131,-0.01,-0.89,-0.41
176093075,-0.01,-0.89,-0.41
176095027,-0.01,-0.89,-0.41
176097009,-0.01,-0.89,-0.41
176099008,-0.01,-0.89,-0.41
176101004,-0.01,-0.89,-0.41
176103042,-0.01,-0.89,-0.41
176104984,-0.01,-0.89,-0.41
176106968,-0.01,-0.89,-0.41
176108967,-0.01,-0.89,-0.41
176110967,-0.00,-0.89,-0.41
176112971,-0.00,-0.89,-0.41
176115065,-0.00,-0.89,-0.41
176116976,-0.00,-0.89,-0.41
176118971,-0.00,-0.89,-0.41
176120959,-0.00,-0.89,-0.40
176123018,-0.00,-0.89,-0.40
176125008,-0.00,-0.89,-0.40
176127007,-0.00,-0.89,-0.40
176129009,-0.00,-0.89,-0.40
176131009,-0.01,-0.89,-0.39
176133012,-0.01,-0.89,-0.39
176134969,-0.01,-0.89,-0.39
176137001,-0.01,-0.89,-0.39
176139062,-0.01,-0.89,-0.39
176141097,-0.02,-0.89,-0.40
176142975,-0.02,-0.89,-0.40
176144970,-0.02,-0.89,-0.40
176146968,-0.02,-0.89,-0.40
176148969,-0.02,-0.89,-0.40
176150971,-0.01,-0.89,-0.41
176152973,-0.01,-0.89,-0.41
176155017,-0.01,-0.89,-0.41
176156970,-0.01,-0.89,-0.41
176158958,-0.01,-0.89,-0.41
176160972,-0.02,-0.89,-0.40
176163031,-0.02,-0.89,-0.40
176165115,-0.02,-0.89,-0.40
176167014,-0.02,-0.89,-0.40
176169006,-0.02,-0.89,-0.40
176171073,-0.02,-0.89,-0.41
176173024,-0.02,-0.89,-0.41
176175011,-0.02,-0.89,-0.41
176177009,-0.02,-0.89,-0.41
176179025,-0.02,-0.89,-0.41
176181023,-0.02,-0.89,-0.41
176182971,-0.02,-0.89,-0.41
176185000,-0.02,-0.89,-0.41
176186969,-0.02,-0.89,-0.41
176189036,-0.02,-0.89,-0.41
176191100,-0.02,-0.89,-0.41
176192974,-0.01,-0.89,-0.41
176194989,-0.01,-0.89,-0.41
176196972,-0.01,-0.89,-0.41
176198967,-0.01,-0.89,-0.41
176200966,-0.01,-0.89,-0.41
176203029,-0.01,-0.89,-0.41
176205014,-0.01,-0.89,-0.41
176207011,-0.01,-0.89,-0.41
176209027,-0.01,-0.89,-0.41
176211040,-0.01,-0.89,-0.41
176213019,-0.01,-0.89,-0.41
176215113,-0.01,-0.89,-0.41
176217016,-0.01,-0.89,-0.41
176219035,-0.01,-0.89,-0.41
176221021,-0.01,-0.89,-0.41
176222970,-0.00,-0.89,-0.40
176224974,-0.00,-0.89,-0.40
176226976,-0.00,-0.89,-0.40
176228972,-0.00,-0.89,-0.40
176230968,-0.00,-0.89,-0.40
176232968,-0.01,-0.89,-0.41
176234970,-0.01,-0.89,-0.41
176236995,-0.01,-0.89,-0.41
176239010,-0.01,-0.89,-0.41
176241120,-0.01,-0.89,-0.41
176243047,-0.01,-0.89,-0.41
176245021,-0.01,-0.89,-0.41
176247014,-0.01,-0.89,-0.41
176249026,-0.01,-0.89,-0.41
176251041,-0.01,-0.89,-0.41
176253017,-0.01,-0.89,-0.41
176255010,-0.01,-0.90,-0.41
176257006,-0.01,-0.90,-0.41
176258969,-0.01,-0.90,-0.41
176260967,-0.01,-0.90,-0.41
176263000,-0.01,-0.90,-0.41
176265131,-0.01,-0.89,-0.41
